,SID,Session,Block,Trial,Sequence,t-2,t-1,t,RT,Response,Delay,Result,Trial_Number,Correct,cutoff,log_RT,inverse_RT,post_error
1,1005,Baseline,1,1,High Prob,2,3,1,0.2883443,1,0.55,Correct,1,1,0.553885676,-1.243600027,3.468076185,0
2,1005,Baseline,1,2,Low Prob,3,1,4,0.3956852,4,0.2,Correct,2,1,0.581374264,-0.927136333,2.527261571,0
3,1005,Baseline,1,3,High Prob,1,4,3,0.4370929,3,0.55,Correct,3,1,0.553885676,-0.827609521,2.287843156,0
4,1005,Baseline,1,4,Low Prob,4,3,1,0.3744696,1,0.3,Correct,4,1,0.581374264,-0.982244654,2.670443742,0
5,1005,Baseline,1,6,High Prob,1,2,1,0.4332418,1,0.2,Correct,6,1,0.553885676,-0.836459277,2.308179866,0
6,1005,Baseline,1,7,High Prob,2,1,4,0.3666567,4,0.4,Correct,7,1,0.553885676,-1.003329291,2.727346862,0
7,1005,Baseline,1,8,High Prob,1,4,3,0.4327165,3,0.35,Correct,8,1,0.553885676,-0.8376725,2.310981902,0
8,1005,Baseline,1,9,Low Prob,4,3,1,0.3901423,1,0.2,Correct,9,1,0.581374264,-0.941243735,2.563167337,0
9,1005,Baseline,1,10,Low Prob,3,1,4,0.4134636,4,0.2,Correct,10,1,0.581374264,-0.883185797,2.418592592,0
10,1005,Baseline,1,11,Low Prob,1,4,2,0.3602033,2,0.5,Correct,11,1,0.581374264,-1.021086685,2.77620999,0
11,1005,Baseline,1,12,High Prob,4,2,3,0.3329003,3,0.3,Correct,12,1,0.553885676,-1.099912233,3.00390237,0
12,1005,Baseline,1,13,Low Prob,2,3,4,0.3783361,4,0.5,Correct,13,1,0.581374264,-0.971972325,2.643152477,0
13,1005,Baseline,1,14,High Prob,3,4,2,0.4264114,2,0.4,Correct,14,1,0.553885676,-0.852350671,2.345153061,0
14,1005,Baseline,1,15,High Prob,4,2,3,0.3204767,3,0.6,Correct,15,1,0.553885676,-1.137945704,3.120351651,0
15,1005,Baseline,1,16,High Prob,2,3,1,0.3364649,1,0.45,Correct,16,1,0.553885676,-1.089261444,2.972078217,0
16,1005,Baseline,1,17,High Prob,3,1,2,0.4858423,2,0.3,Correct,17,1,0.553885676,-0.721871193,2.058281051,0
17,1005,Baseline,1,18,High Prob,1,2,1,0.4372515,1,0.3,Correct,18,1,0.553885676,-0.827246735,2.287013309,0
18,1005,Baseline,1,19,High Prob,2,1,4,0.302636,4,0.5,Correct,19,1,0.553885676,-1.195224516,3.304299555,0
19,1005,Baseline,1,20,High Prob,1,4,3,0.4253238,3,0.2,Correct,20,1,0.553885676,-0.854904518,2.351149877,0
20,1005,Baseline,1,21,High Prob,4,3,2,0.4533612,2,0.45,Correct,21,1,0.553885676,-0.79106612,2.205746764,0
21,1005,Baseline,1,22,High Prob,3,2,4,0.3481245,4,0.55,Correct,22,1,0.553885676,-1.055195105,2.872535544,0
22,1005,Baseline,1,23,Low Prob,2,4,3,0.4468912,3,0.35,Correct,23,1,0.581374264,-0.805440114,2.237681118,0
23,1005,Baseline,1,24,High Prob,4,3,2,0.3402681,2,0.6,Correct,24,1,0.553885676,-1.078021443,2.938859094,0
24,1005,Baseline,1,25,High Prob,3,2,4,0.4716917,4,0.35,Correct,25,1,0.553885676,-0.751429685,2.120028824,0
25,1005,Baseline,1,26,High Prob,2,4,1,0.339656,1,0.4,Correct,26,1,0.553885676,-1.079821938,2.944155263,0
26,1005,Baseline,1,28,High Prob,1,3,4,0.4564498,4,0.2,Correct,28,1,0.553885676,-0.784276552,2.190821422,0
27,1005,Baseline,1,29,High Prob,3,4,2,0.4231617,2,0.35,Correct,29,1,0.553885676,-0.860000903,2.363162829,0
28,1005,Baseline,1,30,High Prob,4,2,3,0.4752403,3,0.25,Correct,30,1,0.553885676,-0.743934708,2.104198655,0
29,1005,Baseline,1,31,High Prob,2,3,1,0.3033,1,0.6,Correct,31,1,0.553885676,-1.193032864,3.297065612,0
30,1005,Baseline,1,32,High Prob,3,1,2,0.4660569,2,0.4,Correct,32,1,0.553885676,-0.763447549,2.145660755,0
31,1005,Baseline,1,33,High Prob,1,2,1,0.4340823,1,0.3,Correct,33,1,0.553885676,-0.834521132,2.30371061,0
32,1005,Baseline,1,34,High Prob,2,1,4,0.3574581,4,0.25,Correct,34,1,0.553885676,-1.028737127,2.797530676,0
33,1005,Baseline,1,35,High Prob,1,4,3,0.3181585,3,0.2,Correct,35,1,0.553885676,-1.145205593,3.143087486,0
34,1005,Baseline,1,36,High Prob,4,3,2,0.4222044,2,0.25,Correct,36,1,0.553885676,-0.862265722,2.368521029,0
35,1005,Baseline,1,37,High Prob,3,2,4,0.3022674,4,0.55,Correct,37,1,0.553885676,-1.196443223,3.308328983,0
36,1005,Baseline,1,38,High Prob,2,4,1,0.3969636,1,0.5,Correct,38,1,0.553885676,-0.92391069,2.51912266,0
37,1005,Baseline,1,39,High Prob,4,1,3,0.4763592,3,0.4,Correct,39,1,0.553885676,-0.741583087,2.099256192,0
38,1005,Baseline,1,40,High Prob,1,3,4,0.512377,4,0.2,Correct,40,1,0.553885676,-0.668694597,1.951687917,0
39,1005,Baseline,1,41,High Prob,3,4,2,0.4271421,2,0.4,Correct,41,1,0.553885676,-0.850638534,2.341141274,0
40,1005,Baseline,1,42,High Prob,4,2,3,0.4511762,3,0.55,Correct,42,1,0.553885676,-0.795897328,2.216428969,0
41,1005,Baseline,1,43,High Prob,2,3,1,0.3459276,1,0.55,Correct,43,1,0.553885676,-1.061525774,2.890778302,0
42,1005,Baseline,1,44,High Prob,3,1,2,0.4093441,2,0.45,Correct,44,1,0.553885676,-0.893199156,2.442932486,0
43,1005,Baseline,1,45,High Prob,1,2,1,0.372064,1,0.5,Correct,45,1,0.553885676,-0.988689396,2.687709641,0
44,1005,Baseline,1,46,High Prob,2,1,4,0.3061127,4,0.45,Correct,46,1,0.553885676,-1.183801944,3.266770702,0
45,1005,Baseline,1,47,Low Prob,1,4,2,0.4948228,2,0.55,Correct,47,1,0.581374264,-0.70355556,2.020925471,0
46,1005,Baseline,1,48,High Prob,4,2,3,0.3062527,3,0.6,Correct,48,1,0.553885676,-1.183344701,3.265277335,0
47,1005,Baseline,1,49,High Prob,2,3,1,0.3510008,1,0.55,Correct,49,1,0.553885676,-1.046966776,2.848996356,0
48,1005,Baseline,1,50,High Prob,3,1,2,0.3977006,2,0.45,Correct,50,1,0.553885676,-0.922055818,2.514454341,0
49,1005,Baseline,1,51,High Prob,1,2,1,0.4811062,1,0.3,Correct,51,1,0.553885676,-0.731667243,2.078543157,0
50,1005,Baseline,1,52,High Prob,2,1,4,0.3891684,4,0.6,Correct,52,1,0.553885676,-0.943743124,2.569581703,0
51,1005,Baseline,1,53,High Prob,1,4,3,0.3425788,3,0.35,Correct,53,1,0.553885676,-1.071253575,2.919036438,0
52,1005,Baseline,1,54,High Prob,4,3,2,0.4239458,2,0.4,Correct,54,1,0.553885676,-0.858149662,2.358792091,0
53,1005,Baseline,1,55,Low Prob,3,2,3,0.5679408,3,0.35,Correct,55,1,0.581374264,-0.565738091,1.760746895,0
54,1005,Baseline,1,56,High Prob,2,3,1,0.318052,1,0.45,Correct,56,1,0.553885676,-1.145540388,3.144139952,0
55,1005,Baseline,1,57,High Prob,3,1,2,0.3440705,2,0.6,Correct,57,1,0.553885676,-1.066908701,2.906381105,0
56,1005,Baseline,1,58,High Prob,1,2,1,0.3595105,1,0.45,Correct,58,1,0.553885676,-1.023011895,2.781559927,0
57,1005,Baseline,1,59,Low Prob,2,1,3,0.4741872,3,0.35,Correct,59,1,0.581374264,-0.746153099,2.10887177,0
58,1005,Baseline,1,60,High Prob,1,3,4,0.3922703,4,0.35,Correct,60,1,0.553885676,-0.935804136,2.549262588,0
59,1005,Baseline,1,61,High Prob,3,4,2,0.3357163,2,0.6,Correct,61,1,0.553885676,-1.091488821,2.978705532,0
60,1005,Baseline,1,62,High Prob,4,2,3,0.3790731,3,0.55,Correct,62,1,0.553885676,-0.970026217,2.638013618,0
61,1005,Baseline,1,63,High Prob,2,3,1,0.3551126,1,0.2,Correct,63,1,0.553885676,-1.035320357,2.816008218,0
62,1005,Baseline,1,64,High Prob,3,1,2,0.2998278,2,0.2,Correct,64,1,0.553885676,-1.204546969,3.335247766,0
63,1005,Baseline,1,65,Low Prob,1,2,4,0.29454,4,0.6,Correct,65,1,0.581374264,-1.222340462,3.395124601,0
64,1005,Baseline,1,66,High Prob,2,4,1,0.3619214,1,0.4,Correct,66,1,0.553885676,-1.016328218,2.763030868,0
65,1005,Baseline,1,68,High Prob,1,3,4,0.3867424,4,0.6,Correct,68,1,0.553885676,-0.949996441,2.585700456,0
66,1005,Baseline,1,69,High Prob,3,4,2,0.4681224,2,0.35,Correct,69,1,0.553885676,-0.759025479,2.13619344,0
67,1005,Baseline,1,71,High Prob,2,3,1,0.3609278,1,0.6,Correct,71,1,0.553885676,-1.019077341,2.77063723,0
68,1005,Baseline,1,72,High Prob,3,1,2,0.2976718,2,0.4,Correct,72,1,0.553885676,-1.211763742,3.359404552,0
69,1005,Baseline,1,73,High Prob,1,2,1,0.367032,1,0.35,Correct,73,1,0.553885676,-1.002306241,2.724558077,0
70,1005,Baseline,1,74,High Prob,2,1,4,0.4230698,4,0.2,Correct,74,1,0.553885676,-0.860218102,2.363676159,0
71,1005,Baseline,1,75,High Prob,1,4,3,0.3571902,3,0.4,Correct,75,1,0.553885676,-1.029486866,2.799628881,0
72,1005,Baseline,1,76,High Prob,4,3,2,0.4658449,2,0.5,Correct,76,1,0.553885676,-0.763902533,2.146637218,0
73,1005,Baseline,1,77,High Prob,3,2,4,0.3339257,4,0.4,Correct,77,1,0.553885676,-1.096836766,2.994678157,0
74,1005,Baseline,1,78,High Prob,2,4,1,0.315368,1,0.5,Correct,78,1,0.553885676,-1.154015068,3.17089876,0
75,1005,Baseline,1,79,High Prob,4,1,3,0.3893453,3,0.2,Correct,79,1,0.553885676,-0.943288668,2.568414207,0
76,1005,Baseline,1,80,High Prob,1,3,4,0.3348152,4,0.55,Correct,80,1,0.553885676,-1.094176541,2.986722228,0
77,1005,Baseline,1,81,High Prob,3,4,2,0.528114,2,0.4,Correct,81,1,0.553885676,-0.638443109,1.893530563,0
78,1005,Baseline,1,82,High Prob,4,2,3,0.4682021,3,0.55,Correct,82,1,0.553885676,-0.758855239,2.135829805,0
79,1005,Baseline,1,83,High Prob,2,3,1,0.2822681,1,0.55,Correct,83,1,0.553885676,-1.26489795,3.542731184,0
80,1005,Baseline,1,84,Low Prob,3,1,4,0.4036559,4,0.25,Correct,84,1,0.581374264,-0.907192497,2.477357571,0
81,1005,Baseline,1,85,Low Prob,1,4,2,0.2903699,2,0.4,Correct,85,1,0.581374264,-1.236599652,3.44388313,0
82,1005,Baseline,1,86,High Prob,4,2,3,0.2937482,3,0.4,Correct,86,1,0.553885676,-1.225032341,3.404276179,0
83,1005,Baseline,1,87,High Prob,2,3,1,0.2771807,1,0.5,Correct,87,1,0.553885676,-1.283085639,3.607754797,0
84,1005,Baseline,1,88,High Prob,3,1,2,0.3951433,2,0.35,Correct,88,1,0.553885676,-0.928506795,2.53072746,0
85,1005,Baseline,1,89,High Prob,1,2,1,0.3425727,1,0.5,Correct,89,1,0.553885676,-1.071271381,2.919088415,0
86,1005,Baseline,1,90,High Prob,2,1,4,0.3679644,4,0.6,Correct,90,1,0.553885676,-0.999769085,2.717654208,0
87,1005,Baseline,1,91,High Prob,1,4,3,0.3540133,3,0.35,Correct,91,1,0.553885676,-1.038420796,2.824752629,0
88,1005,Baseline,1,92,High Prob,4,3,2,0.338728,2,0.4,Correct,92,1,0.553885676,-1.082557854,2.952221251,0
89,1005,Baseline,1,93,High Prob,3,2,4,0.4221059,4,0.35,Correct,93,1,0.553885676,-0.862499049,2.369073732,0
90,1005,Baseline,1,94,High Prob,2,4,1,0.2521981,1,0.6,Correct,94,1,0.553885676,-1.377540389,3.96513693,0
91,1005,Baseline,1,95,High Prob,4,1,3,0.436874,3,0.3,Correct,95,1,0.553885676,-0.828110455,2.288989503,0
92,1005,Baseline,1,96,High Prob,1,3,4,0.3082254,4,0.35,Correct,96,1,0.553885676,-1.176923945,3.244378951,0
93,1005,Baseline,1,97,High Prob,3,4,2,0.3349635,3,0.6,Wrong,97,0,0.461059365,-1.093733708,2.985399902,0
94,1005,Baseline,1,98,Low Prob,4,2,1,0.3343422,1,0.45,Correct,98,1,0.581374264,-1.09559026,2.990947598,0
95,1005,Baseline,1,99,High Prob,2,1,4,0.3537213,4,0.35,Correct,99,1,0.553885676,-1.039245964,2.827084487,0
96,1005,Baseline,1,100,High Prob,1,4,3,0.3604225,3,0.25,Correct,100,1,0.553885676,-1.020478325,2.774521568,0
97,1005,Baseline,1,101,High Prob,4,3,2,0.3371967,2,0.6,Correct,101,1,0.553885676,-1.087088839,2.965628074,0
98,1005,Baseline,1,102,High Prob,3,2,4,0.3545818,4,0.4,Correct,102,1,0.553885676,-1.036816212,2.820223711,0
99,1005,Baseline,1,103,High Prob,2,4,1,0.3612956,1,0.25,Correct,103,1,0.553885676,-1.018058819,2.767816713,0
100,1005,Baseline,1,104,High Prob,4,1,3,0.3340057,3,0.3,Correct,104,1,0.553885676,-1.09659722,2.993960882,0
101,1005,Baseline,1,105,High Prob,1,3,4,0.3593782,4,0.6,Correct,105,1,0.553885676,-1.023379963,2.782583919,0
102,1005,Baseline,1,106,High Prob,3,4,2,0.3621323,2,0.35,Correct,106,1,0.553885676,-1.015745664,2.761421723,0
103,1005,Baseline,1,107,High Prob,4,2,3,0.4188255,3,0.2,Correct,107,1,0.553885676,-0.870300914,2.387629216,0
104,1005,Baseline,1,108,High Prob,2,3,1,0.3048609,1,0.4,Correct,108,1,0.553885676,-1.187899672,3.280184504,0
105,1005,Baseline,1,109,Low Prob,3,1,4,0.239612,4,0.5,Correct,109,1,0.581374264,-1.428734331,4.173413685,0
106,1005,Baseline,1,110,High Prob,1,4,3,0.3249823,3,0.4,Correct,110,1,0.553885676,-1.12398456,3.07709066,0
107,1005,Baseline,1,111,High Prob,4,3,2,0.2750339,2,0.5,Correct,111,1,0.553885676,-1.290860916,3.635915427,0
108,1005,Baseline,1,112,High Prob,3,2,4,0.3270895,4,0.4,Correct,112,1,0.553885676,-1.117521445,3.057267201,0
109,1005,Baseline,1,113,High Prob,2,4,1,0.395106,1,0.35,Correct,113,1,0.553885676,-0.928601196,2.530966374,0
110,1005,Baseline,1,114,High Prob,4,1,3,0.2665161,3,0.4,Correct,114,1,0.553885676,-1.322320624,3.75211854,0
111,1005,Baseline,1,115,High Prob,1,3,4,0.3705587,4,0.3,Correct,115,1,0.553885676,-0.992743412,2.698627775,0
112,1005,Baseline,1,116,High Prob,3,4,2,0.2505829,2,0.6,Correct,116,1,0.553885676,-1.383965475,3.990695295,0
113,1005,Baseline,1,117,High Prob,4,2,3,0.389319,3,0.25,Correct,117,1,0.553885676,-0.94335622,2.568587713,0
114,1005,Baseline,1,118,High Prob,2,3,1,0.2806515,1,0.3,Correct,118,1,0.553885676,-1.270641593,3.563137913,0
115,1005,Baseline,1,119,High Prob,3,1,2,0.3947066,2,0.45,Correct,119,1,0.553885676,-0.929612575,2.533527435,0
116,1005,Baseline,1,120,High Prob,1,2,1,0.3741626,1,0.5,Correct,120,1,0.553885676,-0.983064817,2.672634838,0
117,1005,Baseline,2,1,High Prob,2,3,1,0.3351786,1,0.55,Correct,121,1,0.553885676,-1.093091755,2.983484029,0
118,1005,Baseline,2,2,High Prob,3,1,2,0.296593,2,0.6,Correct,122,1,0.553885676,-1.21539445,3.37162374,0
119,1005,Baseline,2,3,High Prob,1,2,1,0.3399366,1,0.6,Correct,123,1,0.553885676,-1.078996149,2.941725016,0
120,1005,Baseline,2,4,High Prob,2,1,4,0.3693731,4,0.5,Correct,124,1,0.553885676,-0.995948035,2.70728973,0
121,1005,Baseline,2,5,High Prob,1,4,3,0.3593179,3,0.25,Correct,125,1,0.553885676,-1.023547767,2.783050886,0
122,1005,Baseline,2,6,High Prob,4,3,2,0.3480935,2,0.3,Correct,126,1,0.553885676,-1.055284157,2.872791362,0
123,1005,Baseline,2,7,Low Prob,3,2,3,0.4268019,3,0.45,Correct,127,1,0.581374264,-0.851435308,2.343007376,0
124,1005,Baseline,2,8,High Prob,2,3,1,0.3129043,1,0.4,Correct,128,1,0.553885676,-1.161857886,3.195865317,0
125,1005,Baseline,2,9,Low Prob,3,1,4,0.323586,4,0.6,Correct,129,1,0.581374264,-1.128290358,3.090368557,0
126,1005,Baseline,2,10,High Prob,1,4,3,0.3836651,3,0.55,Correct,130,1,0.553885676,-0.957985242,2.606439835,0
127,1005,Baseline,2,11,High Prob,4,3,2,0.399024,2,0.4,Correct,131,1,0.553885676,-0.918733714,2.50611492,0
128,1005,Baseline,2,12,High Prob,3,2,4,0.3497548,4,0.4,Correct,132,1,0.553885676,-1.050522941,2.859145893,0
129,1005,Baseline,2,13,High Prob,2,4,1,0.3104818,1,0.6,Correct,133,1,0.553885676,-1.169629994,3.220800704,0
130,1005,Baseline,2,14,High Prob,4,1,3,0.3531996,3,0.2,Correct,134,1,0.553885676,-1.040721943,2.831260285,0
131,1005,Baseline,2,15,High Prob,1,3,4,0.3439164,4,0.25,Correct,135,1,0.553885676,-1.067356674,2.907683379,0
132,1005,Baseline,2,16,High Prob,3,4,2,0.3292692,2,0.4,Correct,136,1,0.553885676,-1.110879626,3.037028668,0
133,1005,Baseline,2,17,High Prob,4,2,3,0.3693202,3,0.25,Correct,137,1,0.553885676,-0.996091261,2.707677511,0
134,1005,Baseline,2,18,Low Prob,2,3,4,0.2933649,4,0.3,Correct,138,1,0.581374264,-1.226338052,3.408724084,0
135,1005,Baseline,2,19,High Prob,3,4,2,0.3627353,2,0.35,Correct,139,1,0.553885676,-1.014081912,2.756831221,0
136,1005,Baseline,2,20,High Prob,4,2,3,0.4435231,3,0.4,Correct,140,1,0.553885676,-0.813005393,2.254673996,0
137,1005,Baseline,2,21,High Prob,2,3,1,0.3528767,1,0.6,Correct,141,1,0.553885676,-1.041636575,2.833851031,0
138,1005,Baseline,2,22,High Prob,3,1,2,0.2735876,2,0.4,Correct,142,1,0.553885676,-1.296133416,3.655136417,0
139,1005,Baseline,2,23,High Prob,1,2,1,0.3755965,1,0.35,Correct,143,1,0.553885676,-0.97923985,2.662431625,0
140,1005,Baseline,2,24,High Prob,2,1,4,0.3716915,4,0.5,Correct,144,1,0.553885676,-0.98969107,2.690403197,0
141,1005,Baseline,2,25,High Prob,1,4,3,0.3637604,3,0.6,Correct,145,1,0.553885676,-1.01125987,2.749062295,0
142,1005,Baseline,2,26,High Prob,4,3,2,0.2484823,2,0.5,Correct,146,1,0.553885676,-1.392383663,4.024431519,0
143,1005,Baseline,2,27,Low Prob,3,2,3,0.469166,3,0.2,Correct,147,1,0.581374264,-0.756798629,2.13144175,0
144,1005,Baseline,2,28,High Prob,2,3,1,0.2952117,1,0.25,Correct,148,1,0.553885676,-1.220062553,3.387399619,0
145,1005,Baseline,2,29,High Prob,3,1,2,0.4145604,2,0.3,Correct,149,1,0.553885676,-0.880536597,2.412193736,0
146,1005,Baseline,2,30,High Prob,1,2,1,0.3792826,1,0.45,Correct,150,1,0.553885676,-0.969473705,2.636556488,0
147,1005,Baseline,2,31,High Prob,2,1,4,0.3753568,4,0.5,Correct,151,1,0.553885676,-0.979878239,2.664131834,0
148,1005,Baseline,2,32,Low Prob,1,4,2,0.3834301,2,0.2,Correct,152,1,0.581374264,-0.958597943,2.608037293,0
149,1005,Baseline,2,33,High Prob,4,2,3,0.2788501,3,0.6,Correct,153,1,0.553885676,-1.277080918,3.586156146,0
150,1005,Baseline,2,34,High Prob,2,3,1,0.3208508,1,0.25,Correct,154,1,0.553885676,-1.136779061,3.116713438,0
151,1005,Baseline,2,35,High Prob,3,1,2,0.354915,2,0.4,Correct,155,1,0.553885676,-1.035876955,2.817576039,0
152,1005,Baseline,2,36,High Prob,1,2,1,0.4435779,1,0.2,Correct,156,1,0.553885676,-0.812881844,2.254395451,0
153,1005,Baseline,2,37,High Prob,2,1,4,0.2969739,4,0.4,Correct,157,1,0.553885676,-1.214111023,3.367299281,0
154,1005,Baseline,2,38,High Prob,1,4,3,0.3903964,3,0.55,Correct,158,1,0.553885676,-0.940592646,2.56149903,0
155,1005,Baseline,2,39,Low Prob,4,3,1,0.3597887,1,0.35,Correct,159,1,0.581374264,-1.022238364,2.779409137,0
156,1005,Baseline,2,40,High Prob,3,1,2,0.3984691,2,0.25,Correct,160,1,0.553885676,-0.920125325,2.509604885,0
157,1005,Baseline,2,41,High Prob,1,2,1,0.3732449,1,0.2,Correct,161,1,0.553885676,-0.985520506,2.679206066,0
158,1005,Baseline,2,42,Low Prob,2,1,3,0.3972951,3,0.2,Correct,162,1,0.581374264,-0.923075949,2.517020723,0
159,1005,Baseline,2,43,High Prob,1,3,4,0.3026252,4,0.35,Correct,163,1,0.553885676,-1.195260203,3.304417477,0
160,1005,Baseline,2,44,High Prob,3,4,2,0.3453242,2,0.2,Correct,164,1,0.553885676,-1.063271593,2.895829484,0
161,1005,Baseline,2,45,Low Prob,4,2,1,0.2486564,1,0.45,Correct,165,1,0.581374264,-1.391683255,4.021613761,0
162,1005,Baseline,2,46,High Prob,2,1,4,0.4514195,4,0.25,Correct,166,1,0.553885676,-0.795358217,2.215234388,0
163,1005,Baseline,2,47,Low Prob,1,4,2,0.3401375,2,0.3,Correct,167,1,0.581374264,-1.078405331,2.939987505,0
164,1005,Baseline,2,48,Low Prob,4,2,1,0.2915267,1,0.45,Correct,168,1,0.581374264,-1.232623682,3.430217541,0
165,1005,Baseline,2,49,High Prob,2,1,4,0.3269077,4,0.4,Correct,169,1,0.553885676,-1.118077411,3.058967409,0
166,1005,Baseline,2,50,High Prob,1,4,3,0.5009137,3,0.5,Correct,170,1,0.553885676,-0.691321448,1.996351867,0
167,1005,Baseline,2,51,High Prob,4,3,2,0.3176825,2,0.45,Correct,171,1,0.553885676,-1.146702823,3.147796936,0
168,1005,Baseline,2,52,Low Prob,3,2,3,0.3897565,4,0.25,Wrong,172,0,0.495194896,-0.942233094,2.565704485,0
169,1005,Baseline,2,53,High Prob,2,3,1,0.4290926,1,0.2,Correct,173,1,0.553885676,-0.846082533,2.330499291,0
170,1005,Baseline,2,54,High Prob,3,1,2,0.3391343,2,0.2,Correct,174,1,0.553885676,-1.081359085,2.948684341,0
171,1005,Baseline,2,55,Low Prob,1,2,4,0.3125096,4,0.3,Correct,175,1,0.581374264,-1.16312009,3.199901699,0
172,1005,Baseline,2,56,High Prob,2,4,1,0.3552308,1,0.6,Correct,176,1,0.553885676,-1.03498756,2.815071216,0
173,1005,Baseline,2,57,High Prob,4,1,3,0.4779464,3,0.55,Correct,177,1,0.553885676,-0.738256687,2.092284825,0
174,1005,Baseline,2,58,Low Prob,1,3,2,0.2780292,2,0.5,Correct,178,1,0.581374264,-1.280029135,3.596744515,0
175,1005,Baseline,2,59,High Prob,3,2,4,0.4201011,4,0.55,Correct,179,1,0.553885676,-0.867259882,2.38037939,0
176,1005,Baseline,2,60,Low Prob,2,4,3,0.470148,3,0.3,Correct,180,1,0.581374264,-0.75470774,2.126989799,0
177,1005,Baseline,2,61,High Prob,4,3,2,0.3761907,2,0.25,Correct,181,1,0.553885676,-0.977659083,2.658226267,0
178,1005,Baseline,2,62,High Prob,3,2,4,0.5182207,4,0.45,Correct,182,1,0.553885676,-0.657354066,1.929679768,0
179,1005,Baseline,2,63,Low Prob,2,4,3,0.4883744,3,0.6,Correct,183,1,0.581374264,-0.716672954,2.047609375,0
180,1005,Baseline,2,64,High Prob,4,3,2,0.2856838,2,0.55,Correct,184,1,0.553885676,-1.252869674,3.50037349,0
181,1005,Baseline,2,65,Low Prob,3,2,3,0.4850945,3,0.3,Correct,185,1,0.581374264,-0.723411562,2.061454005,0
182,1005,Baseline,2,66,High Prob,2,3,1,0.286493,1,0.45,Correct,186,1,0.553885676,-1.250041176,3.490486679,0
183,1005,Baseline,2,67,High Prob,3,1,2,0.2878749,2,0.45,Correct,187,1,0.553885676,-1.245229268,3.473731124,0
184,1005,Baseline,2,68,High Prob,1,2,1,0.413271,1,0.55,Correct,188,1,0.553885676,-0.883651727,2.419719748,0
185,1005,Baseline,2,69,Low Prob,2,1,3,0.4119865,3,0.4,Correct,189,1,0.581374264,-0.886764697,2.427264,0
186,1005,Baseline,2,70,High Prob,1,3,4,0.3007037,4,0.35,Correct,190,1,0.553885676,-1.201629884,3.325532742,0
187,1005,Baseline,2,71,High Prob,3,4,2,0.3133953,2,0.55,Correct,191,1,0.553885676,-1.160289946,3.190858319,0
188,1005,Baseline,2,72,High Prob,4,2,3,0.4221181,3,0.55,Correct,192,1,0.553885676,-0.862470146,2.369005262,0
189,1005,Baseline,2,73,High Prob,2,3,1,0.4721755,1,0.3,Correct,193,1,0.553885676,-0.75040454,2.117856602,0
190,1005,Baseline,2,74,Low Prob,3,1,4,0.3102137,4,0.35,Correct,194,1,0.581374264,-1.170493864,3.223584258,0
191,1005,Baseline,2,75,High Prob,1,4,3,0.3949488,3,0.35,Correct,195,1,0.553885676,-0.928999143,2.531973765,0
192,1005,Baseline,2,76,High Prob,4,3,2,0.4183473,2,0.2,Correct,196,1,0.553885676,-0.87144333,2.390358441,0
193,1005,Baseline,2,77,Low Prob,3,2,3,0.5063752,3,0.55,Correct,197,1,0.581374264,-0.680477382,1.974820252,0
194,1005,Baseline,2,78,High Prob,2,3,1,0.3332014,1,0.2,Correct,198,1,0.553885676,-1.099008167,3.00118787,0
195,1005,Baseline,2,79,Low Prob,3,1,4,0.3165301,4,0.45,Correct,199,1,0.581374264,-1.150336939,3.159257208,0
196,1005,Baseline,2,80,High Prob,1,4,3,0.3905605,3,0.2,Correct,200,1,0.553885676,-0.940172392,2.560422777,0
197,1005,Baseline,2,81,High Prob,4,3,2,0.4039542,2,0.45,Correct,201,1,0.553885676,-0.906453774,2.475528166,0
198,1005,Baseline,2,82,High Prob,3,2,4,0.322663,4,0.4,Correct,202,1,0.553885676,-1.131146844,3.099208772,0
199,1005,Baseline,2,83,High Prob,2,4,1,0.2547279,1,0.55,Correct,203,1,0.553885676,-1.367559362,3.925757642,0
200,1005,Baseline,2,84,High Prob,4,1,3,0.4094489,3,0.25,Correct,204,1,0.553885676,-0.89294317,2.442307209,0
201,1005,Baseline,2,85,High Prob,1,3,4,0.3601562,4,0.4,Correct,205,1,0.553885676,-1.021217453,2.776573054,0
202,1005,Baseline,2,86,High Prob,3,4,2,0.3388777,1,0.55,Wrong,206,0,0.461059365,-1.082116004,2.950917101,1
203,1005,Baseline,2,88,High Prob,2,3,1,0.3763327,1,0.5,Correct,208,1,0.553885676,-0.977281686,2.65722325,0
204,1005,Baseline,2,89,High Prob,3,1,2,0.3963929,2,0.3,Correct,209,1,0.553885676,-0.925349388,2.522749525,0
205,1005,Baseline,2,90,High Prob,1,2,1,0.4337607,1,0.25,Correct,210,1,0.553885676,-0.835262279,2.305418633,0
206,1005,Baseline,2,91,High Prob,2,1,4,0.4371291,4,0.25,Correct,211,1,0.553885676,-0.827526704,2.287653693,0
207,1005,Baseline,2,92,Low Prob,1,4,2,0.3785235,2,0.2,Correct,212,1,0.581374264,-0.971477121,2.641843901,0
208,1005,Baseline,2,93,High Prob,4,2,3,0.2725616,3,0.25,Correct,213,1,0.553885676,-1.299890635,3.668895398,0
209,1005,Baseline,2,94,High Prob,2,3,1,0.29855,1,0.25,Correct,214,1,0.553885676,-1.208817856,3.349522693,0
210,1005,Baseline,2,95,Low Prob,3,1,4,0.2572569,4,0.3,Correct,215,1,0.581374264,-1.357680082,3.887164931,0
211,1005,Baseline,2,96,Low Prob,1,4,2,0.294015,2,0.4,Correct,216,1,0.581374264,-1.224124493,3.401187014,0
212,1005,Baseline,2,97,High Prob,4,2,3,0.2713677,3,0.25,Correct,217,1,0.553885676,-1.304280551,3.685036944,0
213,1005,Baseline,2,98,High Prob,2,3,1,0.2834429,1,0.6,Correct,218,1,0.553885676,-1.260744587,3.528047448,0
214,1005,Baseline,2,99,Low Prob,3,1,4,0.3268105,4,0.2,Correct,219,1,0.581374264,-1.118374787,3.059877207,0
215,1005,Baseline,2,100,High Prob,1,4,3,0.4329041,3,0.2,Correct,220,1,0.553885676,-0.837239054,2.309980432,0
216,1005,Baseline,2,101,High Prob,4,3,2,0.3142709,2,0.5,Correct,221,1,0.553885676,-1.157499926,3.181968168,0
217,1005,Baseline,2,102,High Prob,3,2,4,0.4049007,4,0.2,Correct,222,1,0.553885676,-0.904113427,2.469741346,0
218,1005,Baseline,2,103,High Prob,2,4,1,0.3636849,1,0.6,Correct,223,1,0.553885676,-1.011467446,2.749632993,0
219,1005,Baseline,2,104,High Prob,4,1,3,0.4104076,3,0.45,Correct,224,1,0.553885676,-0.890604467,2.436602051,0
220,1005,Baseline,2,105,High Prob,1,3,4,0.3611581,4,0.4,Correct,225,1,0.553885676,-1.018439466,2.768870475,0
221,1005,Baseline,2,107,High Prob,4,2,3,0.4485708,3,0.2,Correct,227,1,0.553885676,-0.80168875,2.229302487,0
222,1005,Baseline,2,108,High Prob,2,3,1,0.2773158,1,0.2,Correct,228,1,0.553885676,-1.28259835,3.605997206,0
223,1005,Baseline,2,109,High Prob,3,1,2,0.3833023,2,0.25,Correct,229,1,0.553885676,-0.958931306,2.60890686,0
224,1005,Baseline,2,110,High Prob,1,2,1,0.4306818,1,0.4,Correct,230,1,0.553885676,-0.842385745,2.321899834,0
225,1005,Baseline,2,112,High Prob,1,3,4,0.283475,4,0.4,Correct,232,1,0.553885676,-1.260631343,3.527647941,0
226,1005,Baseline,2,113,High Prob,3,4,2,0.5088788,2,0.45,Correct,233,1,0.553885676,-0.675545405,1.965104461,0
227,1005,Baseline,2,114,High Prob,4,2,3,0.3616161,3,0.35,Correct,234,1,0.553885676,-1.017172127,2.7653636,0
228,1005,Baseline,2,115,High Prob,2,3,1,0.3223174,1,0.2,Correct,235,1,0.553885676,-1.132218505,3.102531852,0
229,1005,Baseline,2,116,High Prob,3,1,2,0.4883567,2,0.3,Correct,236,1,0.553885676,-0.716709198,2.047683589,0
230,1005,Baseline,2,117,Low Prob,1,2,4,0.4017742,4,0.45,Correct,237,1,0.581374264,-0.91186504,2.488960217,0
231,1005,Baseline,2,118,High Prob,2,4,1,0.5005083,1,0.3,Correct,238,1,0.553885676,-0.692131097,1.997968865,0
232,1005,Baseline,2,119,High Prob,4,1,3,0.4672102,3,0.3,Correct,239,1,0.553885676,-0.760976016,2.14036423,0
233,1005,Baseline,2,120,High Prob,1,3,4,0.5312571,4,0.3,Correct,240,1,0.553885676,-0.632509194,1.882327784,0
234,1005,Baseline,3,1,Low Prob,2,3,4,0.3809559,4,0.2,Correct,241,1,0.581374264,-0.965071659,2.624975752,0
235,1005,Baseline,3,2,High Prob,3,4,2,0.3349906,2,0.35,Correct,242,1,0.553885676,-1.093652807,2.98515839,0
236,1005,Baseline,3,3,High Prob,4,2,3,0.288323,3,0.4,Correct,243,1,0.553885676,-1.2436739,3.468332391,0
237,1005,Baseline,3,4,Low Prob,2,3,4,0.3436894,4,0.3,Correct,244,1,0.581374264,-1.068016936,2.909603846,0
238,1005,Baseline,3,5,Low Prob,3,4,1,0.2810769,1,0.4,Correct,245,1,0.581374264,-1.269126982,3.557745229,0
239,1005,Baseline,3,6,High Prob,4,1,3,0.287173,3,0.35,Correct,246,1,0.553885676,-1.247670457,3.482221518,0
240,1005,Baseline,3,7,High Prob,1,3,4,0.3325336,4,0.55,Correct,247,1,0.553885676,-1.101014371,3.00721491,0
241,1005,Baseline,3,8,High Prob,3,4,2,0.307862,2,0.25,Correct,248,1,0.553885676,-1.178103648,3.248208613,0
242,1005,Baseline,3,9,High Prob,4,2,3,0.3666191,3,0.6,Correct,249,1,0.553885676,-1.003431845,2.727626575,0
243,1005,Baseline,3,10,High Prob,2,3,1,0.2946516,1,0.2,Correct,250,1,0.553885676,-1.221961638,3.393838689,0
244,1005,Baseline,3,11,High Prob,3,1,2,0.3760338,2,0.45,Correct,251,1,0.553885676,-0.978076246,2.659335411,0
245,1005,Baseline,3,12,High Prob,1,2,1,0.4141297,1,0.25,Correct,252,1,0.553885676,-0.881576069,2.414702447,0
246,1005,Baseline,3,13,High Prob,2,1,4,0.3568041,3,0.2,Wrong,253,0,0.461059365,-1.030568387,2.802658378,1
247,1005,Baseline,3,15,High Prob,4,3,2,0.2742366,2,0.5,Correct,255,1,0.553885676,-1.293764042,3.646486282,0
248,1005,Baseline,3,16,High Prob,3,2,4,0.3923235,4,0.35,Correct,256,1,0.553885676,-0.935668524,2.548916901,0
249,1005,Baseline,3,17,High Prob,2,4,1,0.3936541,1,0.35,Correct,257,1,0.553885676,-0.932282674,2.540301244,0
250,1005,Baseline,3,18,High Prob,4,1,3,0.3690435,3,0.2,Correct,258,1,0.553885676,-0.996840756,2.709707663,0
251,1005,Baseline,3,19,Low Prob,1,3,2,0.2811167,2,0.6,Correct,259,1,0.581374264,-1.268985393,3.55724153,0
252,1005,Baseline,3,20,High Prob,3,2,4,0.3551084,4,0.25,Correct,260,1,0.553885676,-1.035332184,2.816041524,0
253,1005,Baseline,3,21,High Prob,2,4,1,0.3018595,1,0.55,Correct,261,1,0.553885676,-1.197793602,3.312799498,0
254,1005,Baseline,3,22,High Prob,4,1,3,0.2705928,3,0.45,Correct,262,1,0.553885676,-1.307140171,3.695589831,0
255,1005,Baseline,3,23,High Prob,1,3,4,0.4206275,4,0.35,Correct,263,1,0.553885676,-0.866007635,2.377400431,0
256,1005,Baseline,3,24,High Prob,3,4,2,0.3106745,2,0.3,Correct,264,1,0.553885676,-1.169009539,3.218802959,0
257,1005,Baseline,3,25,High Prob,4,2,3,0.4453784,3,0.3,Correct,265,1,0.553885676,-0.808831021,2.245281765,0
258,1005,Baseline,3,26,High Prob,2,3,1,0.274828,1,0.2,Correct,266,1,0.553885676,-1.291609832,3.63863944,0
259,1005,Baseline,3,27,High Prob,3,1,2,0.4668269,2,0.5,Correct,267,1,0.553885676,-0.761796754,2.14212163,0
260,1005,Baseline,3,28,High Prob,1,2,1,0.4208472,1,0.25,Correct,268,1,0.553885676,-0.865485457,2.376159328,0
261,1005,Baseline,3,29,High Prob,2,1,4,0.3009218,4,0.55,Correct,269,1,0.553885676,-1.200904849,3.323122486,0
262,1005,Baseline,3,30,High Prob,1,4,3,0.2936428,3,0.25,Correct,270,1,0.553885676,-1.225391216,3.405498109,0
263,1005,Baseline,3,31,High Prob,4,3,2,0.3570452,2,0.5,Correct,271,1,0.553885676,-1.029892895,2.800765841,0
264,1005,Baseline,3,32,High Prob,3,2,4,0.4716848,4,0.35,Correct,272,1,0.553885676,-0.751444313,2.120059837,0
265,1005,Baseline,3,33,High Prob,2,4,1,0.3317304,1,0.2,Correct,273,1,0.553885676,-1.103432688,3.014496109,0
266,1005,Baseline,3,34,High Prob,4,1,3,0.3071425,3,0.25,Correct,274,1,0.553885676,-1.18044347,3.255817739,0
267,1005,Baseline,3,35,High Prob,1,3,4,0.3898609,4,0.4,Correct,275,1,0.553885676,-0.94196527,2.56501742,0
268,1005,Baseline,3,36,High Prob,3,4,2,0.4293196,2,0.2,Correct,276,1,0.553885676,-0.845553649,2.329267054,0
269,1005,Baseline,3,37,High Prob,4,2,3,0.4892993,3,0.45,Correct,277,1,0.553885676,-0.714780911,2.043738873,0
270,1005,Baseline,3,38,Low Prob,2,3,4,0.4126668,4,0.2,Correct,278,1,0.581374264,-0.885114791,2.423262545,0
271,1005,Baseline,3,39,High Prob,3,4,2,0.3773877,2,0.45,Correct,279,1,0.553885676,-0.974482238,2.649794893,0
272,1005,Baseline,3,40,High Prob,4,2,3,0.4914409,3,0.35,Correct,280,1,0.553885676,-0.710413591,2.034832673,0
273,1005,Baseline,3,41,High Prob,2,3,1,0.3108305,1,0.4,Correct,281,1,0.553885676,-1.168507531,3.217187503,0
274,1005,Baseline,3,42,High Prob,3,1,2,0.3495677,2,0.3,Correct,282,1,0.553885676,-1.051058031,2.860676201,0
275,1005,Baseline,3,43,Low Prob,1,2,4,0.4242699,4,0.55,Correct,283,1,0.581374264,-0.85738547,2.356990208,0
276,1005,Baseline,3,44,High Prob,2,4,1,0.500322,1,0.45,Correct,284,1,0.553885676,-0.692503388,1.998712829,0
277,1005,Baseline,3,45,High Prob,4,1,3,0.3570363,3,0.25,Correct,285,1,0.553885676,-1.029917822,2.800835657,0
278,1005,Baseline,3,46,High Prob,1,3,4,0.391768,4,0.35,Correct,286,1,0.553885676,-0.937085451,2.55253109,0
279,1005,Baseline,3,47,Low Prob,3,4,1,0.3791794,1,0.3,Correct,287,1,0.581374264,-0.969745835,2.637274071,0
280,1005,Baseline,3,48,High Prob,4,1,3,0.3211832,3,0.25,Correct,288,1,0.553885676,-1.135743602,3.113487879,0
281,1005,Baseline,3,49,High Prob,1,3,4,0.3052445,4,0.45,Correct,289,1,0.553885676,-1.186642184,3.276062304,0
282,1005,Baseline,3,50,High Prob,3,4,2,0.4899541,2,0.25,Correct,290,1,0.553885676,-0.713443566,2.041007515,0
283,1005,Baseline,3,51,High Prob,4,2,3,0.4473487,3,0.55,Correct,291,1,0.553885676,-0.804416899,2.235392659,0
284,1005,Baseline,3,52,High Prob,2,3,1,0.3207432,1,0.3,Correct,292,1,0.553885676,-1.137114476,3.117759005,0
285,1005,Baseline,3,53,High Prob,3,1,2,0.4267715,1,0.2,Wrong,293,0,0.461059365,-0.851506538,2.343174275,1
286,1005,Baseline,3,54,High Prob,1,2,1,0.3448324,1,0.4,Correct,294,1,0.553885676,-1.064696777,2.899959517,0
287,1005,Baseline,3,55,High Prob,2,1,4,0.3882192,4,0.55,Correct,295,1,0.553885676,-0.94618515,2.575864357,0
288,1005,Baseline,3,56,High Prob,1,4,3,0.4255781,3,0.25,Correct,296,1,0.553885676,-0.854306799,2.34974497,0
289,1005,Baseline,3,57,High Prob,4,3,2,0.2656341,2,0.35,Correct,297,1,0.553885676,-1.325635481,3.764576912,0
290,1005,Baseline,3,59,High Prob,2,4,1,0.2844536,1,0.35,Correct,299,1,0.553885676,-1.257185132,3.515511844,0
291,1005,Baseline,3,60,Low Prob,4,1,2,0.3237792,2,0.3,Correct,300,1,0.581374264,-1.127693477,3.088524525,0
292,1005,Baseline,3,61,High Prob,1,2,1,0.3758318,1,0.35,Correct,301,1,0.553885676,-0.978613576,2.660764736,0
293,1005,Baseline,3,63,High Prob,1,4,3,0.3766294,3,0.3,Correct,303,1,0.553885676,-0.976493599,2.65512995,0
294,1005,Baseline,3,64,High Prob,4,3,2,0.3286288,2,0.4,Correct,304,1,0.553885676,-1.112826433,3.042946936,0
295,1005,Baseline,3,65,High Prob,3,2,4,0.3867626,4,0.6,Correct,305,1,0.553885676,-0.949944211,2.585565409,0
296,1005,Baseline,3,66,High Prob,2,4,1,0.292114,1,0.35,Correct,306,1,0.553885676,-1.230611142,3.423321032,0
297,1005,Baseline,3,67,High Prob,4,1,3,0.3014748,3,0.25,Correct,307,1,0.553885676,-1.199068848,3.317026829,0
298,1005,Baseline,3,68,High Prob,1,3,4,0.3981882,4,0.45,Correct,308,1,0.553885676,-0.920830521,2.511375274,0
299,1005,Baseline,3,69,High Prob,3,4,2,0.4788534,2,0.35,Correct,309,1,0.553885676,-0.736360783,2.088321812,0
300,1005,Baseline,3,70,High Prob,4,2,3,0.4369479,3,0.55,Correct,310,1,0.553885676,-0.827941313,2.288602371,0
301,1005,Baseline,3,71,Low Prob,2,3,4,0.336383,4,0.45,Correct,311,1,0.581374264,-1.089504887,2.972801836,0
302,1005,Baseline,3,72,High Prob,3,4,2,0.5377396,2,0.2,Correct,312,1,0.553885676,-0.620380851,1.859636151,0
303,1005,Baseline,3,73,High Prob,4,2,3,0.411185,3,0.6,Correct,313,1,0.553885676,-0.888712044,2.431995331,0
304,1005,Baseline,3,74,High Prob,2,3,1,0.3378476,1,0.2,Correct,314,1,0.553885676,-1.085160373,2.95991447,0
305,1005,Baseline,3,76,High Prob,1,2,1,0.4293024,1,0.4,Correct,316,1,0.553885676,-0.845593713,2.329360376,0
306,1005,Baseline,3,77,High Prob,2,1,4,0.4833856,4,0.2,Correct,317,1,0.553885676,-0.7269406,2.068741808,0
307,1005,Baseline,3,78,High Prob,1,4,3,0.5107461,3,0.4,Correct,318,1,0.553885676,-0.671882681,1.957919992,0
308,1005,Baseline,3,79,High Prob,4,3,2,0.3174392,2,0.3,Correct,319,1,0.553885676,-1.147468975,3.150209552,0
309,1005,Baseline,3,80,High Prob,3,2,4,0.3875444,4,0.3,Correct,320,1,0.553885676,-0.947924856,2.580349503,0
310,1005,Baseline,3,81,Low Prob,2,4,3,0.4328867,3,0.45,Correct,321,1,0.581374264,-0.837279248,2.310073282,0
311,1005,Baseline,3,83,High Prob,3,1,2,0.3163148,2,0.35,Correct,323,1,0.553885676,-1.151017359,3.16140756,0
312,1005,Baseline,3,84,High Prob,1,2,1,0.4004062,1,0.35,Correct,324,1,0.553885676,-0.915275747,2.497463825,0
313,1005,Baseline,3,85,High Prob,2,1,4,0.4631175,4,0.4,Correct,325,1,0.553885676,-0.769774477,2.159279233,0
314,1005,Baseline,3,86,Low Prob,1,4,2,0.5458439,2,0.25,Correct,326,1,0.581374264,-0.605422242,1.832025603,0
315,1005,Baseline,3,87,High Prob,4,2,3,0.2892293,3,0.25,Correct,327,1,0.553885676,-1.24053548,3.457464372,0
316,1005,Baseline,3,88,High Prob,2,3,1,0.2986615,1,0.25,Correct,328,1,0.553885676,-1.208444454,3.348272208,0
317,1005,Baseline,3,89,High Prob,3,1,2,0.3773182,2,0.5,Correct,329,1,0.553885676,-0.974666416,2.650282971,0
318,1005,Baseline,3,90,High Prob,1,2,1,0.4213758,1,0.5,Correct,330,1,0.553885676,-0.864230207,2.373178526,0
319,1005,Baseline,3,91,High Prob,2,1,4,0.4374192,4,0.35,Correct,331,1,0.553885676,-0.826863276,2.286136502,0
320,1005,Baseline,3,92,High Prob,1,4,3,0.3748127,3,0.3,Correct,332,1,0.553885676,-0.981328844,2.667999243,0
321,1005,Baseline,3,93,High Prob,4,3,2,0.3488523,2,0.25,Correct,333,1,0.553885676,-1.053106656,2.86654266,0
322,1005,Baseline,3,94,High Prob,3,2,4,0.3295925,4,0.5,Correct,334,1,0.553885676,-1.109898236,3.034049622,0
323,1005,Baseline,3,95,High Prob,2,4,1,0.2996313,1,0.4,Correct,335,1,0.553885676,-1.20520256,3.337435041,0
324,1005,Baseline,3,96,High Prob,4,1,3,0.3763186,3,0.55,Correct,336,1,0.553885676,-0.977319154,2.657322811,0
325,1005,Baseline,3,97,High Prob,1,3,4,0.4643831,4,0.6,Correct,337,1,0.553885676,-0.767045421,2.153394471,0
326,1005,Baseline,3,98,High Prob,3,4,2,0.4871514,2,0.55,Correct,338,1,0.553885676,-0.719180321,2.052749925,0
327,1005,Baseline,3,99,High Prob,4,2,3,0.500547,3,0.35,Correct,339,1,0.553885676,-0.692053779,1.997814391,0
328,1005,Baseline,3,100,Low Prob,2,3,4,0.3952814,4,0.5,Correct,340,1,0.581374264,-0.928157363,2.529843296,0
329,1005,Baseline,3,101,Low Prob,3,4,1,0.2826597,1,0.4,Correct,341,1,0.581374264,-1.263511578,3.537823043,0
330,1005,Baseline,3,102,High Prob,4,1,3,0.358026,3,0.6,Correct,342,1,0.553885676,-1.02714967,2.793093239,0
331,1005,Baseline,3,103,Low Prob,1,3,2,0.2707275,2,0.2,Correct,343,1,0.581374264,-1.306642499,3.693751097,0
332,1005,Baseline,3,104,Low Prob,3,2,3,0.4427567,3,0.2,Correct,344,1,0.581374264,-0.81473487,2.258576776,0
333,1005,Baseline,3,105,High Prob,2,3,1,0.3341446,1,0.25,Correct,345,1,0.553885676,-1.096181446,2.992716327,0
334,1005,Baseline,3,106,High Prob,3,1,2,0.4555891,2,0.2,Correct,346,1,0.553885676,-0.786163972,2.194960327,0
335,1005,Baseline,3,107,High Prob,1,2,1,0.3842297,1,0.5,Correct,347,1,0.553885676,-0.956514728,2.602609845,0
336,1005,Baseline,3,108,High Prob,2,1,4,0.3336498,4,0.45,Correct,348,1,0.553885676,-1.097663339,2.997154502,0
337,1005,Baseline,3,109,High Prob,1,4,3,0.3630406,3,0.5,Correct,349,1,0.553885676,-1.013240605,2.754512856,0
338,1005,Baseline,3,110,High Prob,4,3,2,0.3317722,2,0.4,Correct,350,1,0.553885676,-1.10330669,3.014116312,0
339,1005,Baseline,3,112,Low Prob,2,4,3,0.5078642,3,0.4,Correct,352,1,0.581374264,-0.67754119,1.969030304,0
340,1005,Baseline,3,113,High Prob,4,3,2,0.3026009,2,0.6,Correct,353,1,0.553885676,-1.195340503,3.304682835,0
341,1005,Baseline,3,114,Low Prob,3,2,3,0.4553304,3,0.25,Correct,354,1,0.581374264,-0.78673197,2.196207413,0
342,1005,Baseline,3,115,High Prob,2,3,1,0.3881107,1,0.4,Correct,355,1,0.553885676,-0.946464671,2.576584464,0
343,1005,Baseline,3,117,Low Prob,1,2,4,0.4294984,4,0.6,Correct,357,1,0.581374264,-0.845137263,2.328297381,0
344,1005,Baseline,3,118,Low Prob,2,4,3,0.3755902,3,0.5,Correct,358,1,0.581374264,-0.979256624,2.662476284,0
345,1005,Baseline,3,119,High Prob,4,3,2,0.3076534,2,0.5,Correct,359,1,0.553885676,-1.178781454,3.250411014,0
346,1005,Baseline,3,120,High Prob,3,2,4,0.3823455,4,0.2,Correct,360,1,0.553885676,-0.961430629,2.615435516,0
347,1005,Baseline,4,1,High Prob,2,3,1,0.315492,1,0.45,Correct,361,1,0.553885676,-1.153621954,3.169652479,0
348,1005,Baseline,4,2,Low Prob,3,1,4,0.3655477,4,0.4,Correct,362,1,0.581374264,-1.006358502,2.735621097,0
349,1005,Baseline,4,3,High Prob,1,4,3,0.4174954,3,0.3,Correct,363,1,0.553885676,-0.873481753,2.395235971,0
350,1005,Baseline,4,4,High Prob,4,3,2,0.2735541,2,0.35,Correct,364,1,0.553885676,-1.29625587,3.655584033,0
351,1005,Baseline,4,5,High Prob,3,2,4,0.3116539,4,0.35,Correct,365,1,0.553885676,-1.165862002,3.208687586,0
352,1005,Baseline,4,6,High Prob,2,4,1,0.3543479,1,0.2,Correct,366,1,0.553885676,-1.03747608,2.822085301,0
353,1005,Baseline,4,7,High Prob,4,1,3,0.2730681,3,0.45,Correct,367,1,0.553885676,-1.298034064,3.662090153,0
354,1005,Baseline,4,8,High Prob,1,3,4,0.3891222,4,0.4,Correct,368,1,0.553885676,-0.943861846,2.569886786,0
355,1005,Baseline,4,9,High Prob,3,4,2,0.4104486,2,0.25,Correct,369,1,0.553885676,-0.890504571,2.436358657,0
356,1005,Baseline,4,10,High Prob,4,2,3,0.3592161,3,0.45,Correct,370,1,0.553885676,-1.023831122,2.783839588,0
357,1005,Baseline,4,11,High Prob,2,3,1,0.3499594,1,0.25,Correct,371,1,0.553885676,-1.049938131,2.857474324,0
358,1005,Baseline,4,12,High Prob,3,1,2,0.3466449,2,0.5,Correct,372,1,0.553885676,-1.059454366,2.884796517,0
359,1005,Baseline,4,13,High Prob,1,2,1,0.4000201,1,0.3,Correct,373,1,0.553885676,-0.916240483,2.499874381,0
360,1005,Baseline,4,14,Low Prob,2,1,3,0.3487599,3,0.45,Correct,374,1,0.581374264,-1.053371559,2.867302118,0
361,1005,Baseline,4,15,High Prob,1,3,4,0.2914536,4,0.25,Correct,375,1,0.553885676,-1.232874463,3.43107788,0
362,1005,Baseline,4,16,High Prob,3,4,2,0.3408286,2,0.45,Correct,376,1,0.553885676,-1.076375567,2.934026076,0
363,1005,Baseline,4,17,High Prob,4,2,3,0.4042124,3,0.45,Correct,377,1,0.553885676,-0.905814797,2.473946866,0
364,1005,Baseline,4,18,Low Prob,2,3,4,0.4429369,4,0.2,Correct,378,1,0.581374264,-0.814327957,2.257657919,0
365,1005,Baseline,4,19,High Prob,3,4,2,0.2783237,1,0.45,Wrong,379,0,0.461059365,-1.278970454,3.592938726,1
366,1005,Baseline,4,20,High Prob,4,2,3,0.5003934,3,0.55,Correct,380,1,0.553885676,-0.69236069,1.998427637,0
367,1005,Baseline,4,21,High Prob,2,3,1,0.3711103,1,0.3,Correct,381,1,0.553885676,-0.991255956,2.694616668,0
368,1005,Baseline,4,22,High Prob,3,1,2,0.3951226,2,0.2,Correct,382,1,0.553885676,-0.928559182,2.530860042,0
369,1005,Baseline,4,23,High Prob,1,2,1,0.3965105,1,0.35,Correct,383,1,0.553885676,-0.925052757,2.522001309,0
370,1005,Baseline,4,24,High Prob,2,1,4,0.3499048,4,0.35,Correct,384,1,0.553885676,-1.050094161,2.857920211,0
371,1005,Baseline,4,25,High Prob,1,4,3,0.3666298,3,0.4,Correct,385,1,0.553885676,-1.003402659,2.72754697,0
372,1005,Baseline,4,26,High Prob,4,3,2,0.3206787,2,0.35,Correct,386,1,0.553885676,-1.137315592,3.118386098,0
373,1005,Baseline,4,27,High Prob,3,2,4,0.338723,4,0.4,Correct,387,1,0.553885676,-1.082572615,2.95226483,0
374,1005,Baseline,4,28,High Prob,2,4,1,0.5081053,1,0.6,Correct,388,1,0.553885676,-0.677066569,1.968095983,0
375,1005,Baseline,4,29,High Prob,4,1,3,0.534819,3,0.4,Correct,389,1,0.553885676,-0.625826907,1.869791462,0
376,1005,Baseline,4,30,High Prob,1,3,4,0.3702537,4,0.35,Correct,390,1,0.553885676,-0.993566833,2.700850795,0
377,1005,Baseline,4,31,High Prob,3,4,2,0.3362886,2,0.45,Correct,391,1,0.553885676,-1.089785559,2.973636335,0
378,1005,Baseline,4,32,High Prob,4,2,3,0.37969,3,0.55,Correct,392,1,0.553885676,-0.968400149,2.633727515,0
379,1005,Baseline,4,33,High Prob,2,3,1,0.353728,1,0.25,Correct,393,1,0.553885676,-1.039227023,2.827030939,0
380,1005,Baseline,4,34,High Prob,3,1,2,0.4704397,2,0.3,Correct,394,1,0.553885676,-0.75408749,2.125670941,0
381,1005,Baseline,4,35,High Prob,1,2,1,0.3784989,1,0.6,Correct,395,1,0.553885676,-0.971542112,2.642015604,0
382,1005,Baseline,4,36,High Prob,2,1,4,0.4365585,4,0.55,Correct,396,1,0.553885676,-0.828832892,2.290643751,0
383,1005,Baseline,4,37,High Prob,1,4,3,0.4199372,3,0.35,Correct,397,1,0.553885676,-0.867650103,2.381308443,0
384,1005,Baseline,4,38,Low Prob,4,3,1,0.3579967,1,0.3,Correct,398,1,0.581374264,-1.027231511,2.793321838,0
385,1005,Baseline,4,39,High Prob,3,1,2,0.308733,2,0.45,Correct,399,1,0.553885676,-1.175278453,3.239044741,0
386,1005,Baseline,4,40,High Prob,1,2,1,0.3994068,1,0.6,Correct,400,1,0.553885676,-0.917774833,2.503713006,0
387,1005,Baseline,4,41,High Prob,2,1,4,0.4341548,4,0.3,Correct,401,1,0.553885676,-0.834354126,2.30332591,0
388,1005,Baseline,4,42,High Prob,1,4,3,0.3916094,3,0.6,Correct,402,1,0.553885676,-0.937490365,2.553564853,0
389,1005,Baseline,4,43,High Prob,4,3,2,0.2889659,2,0.55,Correct,403,1,0.553885676,-1.241446591,3.460615941,0
390,1005,Baseline,4,44,High Prob,3,2,4,0.3742955,4,0.35,Correct,404,1,0.553885676,-0.982709687,2.671685874,0
391,1005,Baseline,4,45,High Prob,2,4,1,0.3164111,1,0.25,Correct,405,1,0.553885676,-1.150712962,3.160445383,0
392,1005,Baseline,4,46,High Prob,4,1,3,0.2864645,3,0.4,Correct,406,1,0.553885676,-1.25014066,3.490833943,0
393,1005,Baseline,4,47,High Prob,1,3,4,0.3618408,4,0.6,Correct,407,1,0.553885676,-1.016550943,2.763646333,0
394,1005,Baseline,4,48,High Prob,3,4,2,0.3185396,2,0.3,Correct,408,1,0.553885676,-1.144008479,3.139327104,0
395,1005,Baseline,4,49,High Prob,4,2,3,0.4725937,3,0.6,Correct,409,1,0.553885676,-0.749519245,2.115982503,0
396,1005,Baseline,4,50,High Prob,2,3,1,0.2767169,1,0.4,Correct,410,1,0.553885676,-1.284760317,3.613801687,0
397,1005,Baseline,4,51,High Prob,3,1,2,0.4326645,2,0.2,Correct,411,1,0.553885676,-0.837792678,2.311259648,0
398,1005,Baseline,4,52,High Prob,1,2,1,0.3600735,1,0.55,Correct,412,1,0.553885676,-1.021447102,2.777210764,0
399,1005,Baseline,4,53,High Prob,2,1,4,0.3388099,4,0.55,Correct,413,1,0.553885676,-1.082316096,2.951507615,0
400,1005,Baseline,4,54,High Prob,1,4,3,0.2781574,3,0.35,Correct,414,1,0.553885676,-1.279568138,3.595086811,0
401,1005,Baseline,4,55,High Prob,4,3,2,0.3462893,2,0.4,Correct,415,1,0.553885676,-1.060480726,2.887758877,0
402,1005,Baseline,4,56,High Prob,3,2,4,0.3495943,4,0.35,Correct,416,1,0.553885676,-1.05098194,2.860458537,0
403,1005,Baseline,4,57,High Prob,2,4,1,0.3103252,1,0.2,Correct,417,1,0.553885676,-1.170134499,3.222426023,0
404,1005,Baseline,4,58,High Prob,4,1,3,0.2490386,3,0.4,Correct,418,1,0.553885676,-1.390147374,4.015441783,0
405,1005,Baseline,4,59,High Prob,1,3,4,0.3517456,4,0.35,Correct,419,1,0.553885676,-1.044847092,2.842963778,0
406,1005,Baseline,4,60,High Prob,3,4,2,0.38845,2,0.3,Correct,420,1,0.553885676,-0.945590818,2.574333891,0
407,1005,Baseline,4,61,High Prob,4,2,3,0.4278475,3,0.6,Correct,421,1,0.553885676,-0.848988455,2.337281391,0
408,1005,Baseline,4,62,High Prob,2,3,1,0.3259672,1,0.5,Correct,422,1,0.553885676,-1.120958516,3.067793324,0
409,1005,Baseline,4,63,High Prob,3,1,2,0.3339567,2,0.25,Correct,423,1,0.553885676,-1.096743935,2.994400172,0
410,1005,Baseline,4,64,Low Prob,1,2,4,0.3833374,4,0.4,Correct,424,1,0.581374264,-0.958839738,2.608667978,0
411,1005,Baseline,4,65,High Prob,2,4,1,0.4647188,1,0.35,Correct,425,1,0.553885676,-0.766322788,2.151838919,0
412,1005,Baseline,4,66,High Prob,4,1,3,0.2907618,3,0.25,Correct,426,1,0.553885676,-1.235250904,3.439241331,0
413,1005,Baseline,4,67,Low Prob,1,3,2,0.3281448,2,0.35,Correct,427,1,0.581374264,-1.114300305,3.047435157,0
414,1005,Baseline,4,68,High Prob,3,2,4,0.3022477,4,0.3,Correct,428,1,0.553885676,-1.196508399,3.308544614,0
415,1005,Baseline,4,69,High Prob,2,4,1,0.2809048,2,0.6,Wrong,429,0,0.461059365,-1.269739457,3.559924928,1
416,1005,Baseline,4,71,High Prob,1,3,4,0.333019,4,0.6,Correct,431,1,0.553885676,-1.099555734,3.00283167,0
417,1005,Baseline,4,72,High Prob,3,4,2,0.5344299,2,0.6,Correct,432,1,0.553885676,-0.626554708,1.871152793,0
418,1005,Baseline,4,73,High Prob,4,2,3,0.5337931,3,0.25,Correct,433,1,0.553885676,-0.627746968,1.873385025,0
419,1005,Baseline,4,74,High Prob,2,3,1,0.3271864,1,0.2,Correct,434,1,0.553885676,-1.11722524,3.056361756,0
420,1005,Baseline,4,75,High Prob,3,1,2,0.4652214,2,0.6,Correct,435,1,0.553885676,-0.765241858,2.149514188,0
421,1005,Baseline,4,77,High Prob,2,1,4,0.4453521,4,0.4,Correct,437,1,0.553885676,-0.808890074,2.245414359,0
422,1005,Baseline,4,78,High Prob,1,4,3,0.2847223,3,0.35,Correct,438,1,0.553885676,-1.25624096,3.512194163,0
423,1005,Baseline,4,79,High Prob,4,3,2,0.5321461,2,0.3,Correct,439,1,0.553885676,-0.630837203,1.879183179,0
424,1005,Baseline,4,80,High Prob,3,2,4,0.4655217,4,0.3,Correct,440,1,0.553885676,-0.764596567,2.148127574,0
425,1005,Baseline,4,81,High Prob,2,4,1,0.2876302,1,0.35,Correct,441,1,0.553885676,-1.246079652,3.476686384,0
426,1005,Baseline,4,82,High Prob,4,1,3,0.422968,3,0.3,Correct,442,1,0.553885676,-0.860458753,2.364245049,0
427,1005,Baseline,4,83,High Prob,1,3,4,0.4289844,4,0.2,Correct,443,1,0.553885676,-0.846334724,2.331087098,0
428,1005,Baseline,4,84,High Prob,3,4,2,0.4330434,2,0.25,Correct,444,1,0.553885676,-0.836917325,2.309237365,0
429,1005,Baseline,4,85,High Prob,4,2,3,0.4864277,3,0.2,Correct,445,1,0.553885676,-0.720667001,2.055803977,0
430,1005,Baseline,4,86,High Prob,2,3,1,0.3258017,1,0.3,Correct,446,1,0.553885676,-1.121466365,3.069351695,0
431,1005,Baseline,4,87,High Prob,3,1,2,0.4178411,2,0.55,Correct,447,1,0.553885676,-0.872654062,2.393254278,0
432,1005,Baseline,4,88,High Prob,1,2,1,0.3998632,1,0.4,Correct,448,1,0.553885676,-0.91663279,2.500855293,0
433,1005,Baseline,4,89,High Prob,2,1,4,0.4366473,4,0.25,Correct,449,1,0.553885676,-0.828629504,2.290177908,0
434,1005,Baseline,4,90,High Prob,1,4,3,0.3620332,3,0.2,Correct,450,1,0.553885676,-1.016019359,2.762177612,0
435,1005,Baseline,4,91,High Prob,4,3,2,0.3947027,2,0.4,Correct,451,1,0.553885676,-0.929622456,2.533552469,0
436,1005,Baseline,4,92,High Prob,3,2,4,0.3021182,4,0.3,Correct,452,1,0.553885676,-1.196936947,3.309962789,0
437,1005,Baseline,4,93,High Prob,2,4,1,0.3108076,1,0.25,Correct,453,1,0.553885676,-1.168581208,3.217424542,0
438,1005,Baseline,4,94,High Prob,4,1,3,0.3154981,3,0.35,Correct,454,1,0.553885676,-1.153602619,3.169591196,0
439,1005,Baseline,4,95,High Prob,1,3,4,0.3975434,4,0.4,Correct,455,1,0.553885676,-0.922451168,2.515448628,0
440,1005,Baseline,4,96,Low Prob,3,4,1,0.5149481,1,0.25,Correct,456,1,0.581374264,-0.66368916,1.941943275,0
441,1005,Baseline,4,97,High Prob,4,1,3,0.3649997,3,0.4,Correct,457,1,0.553885676,-1.007858747,2.739728279,0
442,1005,Baseline,4,98,High Prob,1,3,4,0.4530153,4,0.6,Correct,458,1,0.553885676,-0.791829379,2.207430963,0
443,1005,Baseline,4,99,High Prob,3,4,2,0.4137938,2,0.5,Correct,459,1,0.553885676,-0.882387497,2.416662599,0
444,1005,Baseline,4,100,High Prob,4,2,3,0.3984703,4,0.35,Wrong,460,0,0.461059365,-0.920122313,2.509597328,1
445,1005,Baseline,4,101,High Prob,2,3,1,0.4331892,1,0.3,Correct,461,1,0.553885676,-0.836580695,2.308460137,0
446,1005,Baseline,4,102,High Prob,3,1,2,0.4726017,2,0.55,Correct,462,1,0.553885676,-0.749502317,2.115946684,0
447,1005,Baseline,4,103,High Prob,1,2,1,0.5466521,1,0.45,Correct,463,1,0.553885676,-0.603942694,1.829317037,0
448,1005,Baseline,4,104,High Prob,2,1,4,0.5320572,4,0.6,Correct,464,1,0.553885676,-0.631004277,1.879497167,0
449,1005,Baseline,4,105,High Prob,1,4,3,0.3734431,3,0.2,Correct,465,1,0.553885676,-0.984989629,2.677784112,0
450,1005,Baseline,4,107,High Prob,3,2,4,0.502926,4,0.3,Correct,467,1,0.553885676,-0.687312237,1.988364093,0
451,1005,Baseline,4,108,High Prob,2,4,1,0.3516553,1,0.45,Correct,468,1,0.553885676,-1.045103845,2.84369381,0
452,1005,Baseline,4,109,High Prob,4,1,3,0.3563621,3,0.3,Correct,469,1,0.553885676,-1.03180793,2.806134547,0
453,1005,Baseline,4,110,High Prob,1,3,4,0.4150835,4,0.55,Correct,470,1,0.553885676,-0.879275574,2.409153821,0
454,1005,Baseline,4,111,High Prob,3,4,2,0.5350996,2,0.55,Correct,471,1,0.553885676,-0.625302381,1.868810965,0
455,1005,Baseline,4,112,Low Prob,4,2,1,0.2965496,2,0.2,Wrong,472,0,0.495194896,-1.21554079,3.372117177,1
456,1005,Baseline,4,113,High Prob,2,1,4,0.4319051,4,0.3,Correct,473,1,0.553885676,-0.839549391,2.315323436,0
457,1005,Baseline,4,114,High Prob,1,4,3,0.4252919,3,0.5,Correct,474,1,0.553885676,-0.854979522,2.35132623,0
458,1005,Baseline,4,115,High Prob,4,3,2,0.5153834,2,0.5,Correct,475,1,0.553885676,-0.662844189,1.940303083,0
459,1005,Baseline,4,116,High Prob,3,2,4,0.361437,4,0.5,Correct,476,1,0.553885676,-1.017667526,2.766733898,0
460,1005,Baseline,4,117,Low Prob,2,4,3,0.4641393,3,0.25,Correct,477,1,0.581374264,-0.767570556,2.154525592,0
461,1005,Baseline,4,118,High Prob,4,3,2,0.4969345,2,0.3,Correct,478,1,0.553885676,-0.699297052,2.012337642,0
462,1005,Baseline,4,119,High Prob,3,2,4,0.3443196,4,0.5,Correct,479,1,0.553885676,-1.066184983,2.904278467,0
463,1005,Baseline,4,120,High Prob,2,4,1,0.3496278,1,0.3,Correct,480,1,0.553885676,-1.050886119,2.860184459,0
464,1005,Baseline,5,1,High Prob,2,3,1,0.4060343,1,0.3,Correct,481,1,0.553885676,-0.90131764,2.462846119,0
465,1005,Baseline,5,2,High Prob,3,1,2,0.3667256,2,0.55,Correct,482,1,0.553885676,-1.003141395,2.726834451,0
466,1005,Baseline,5,3,High Prob,1,2,1,0.362794,1,0.5,Correct,483,1,0.553885676,-1.013920099,2.756385166,0
467,1005,Baseline,5,4,High Prob,2,1,4,0.3714889,4,0.2,Correct,484,1,0.553885676,-0.990236294,2.69187047,0
468,1005,Baseline,5,5,Low Prob,1,4,2,0.3335487,2,0.55,Correct,485,1,0.581374264,-1.097966397,2.998062952,0
469,1005,Baseline,5,6,High Prob,4,2,3,0.4389436,3,0.6,Correct,486,1,0.553885676,-0.823384348,2.278197017,0
470,1005,Baseline,5,7,High Prob,2,3,1,0.4483685,1,0.5,Correct,487,1,0.553885676,-0.80213984,2.230308329,0
471,1005,Baseline,5,8,High Prob,3,1,2,0.5510699,2,0.55,Correct,488,1,0.553885676,-0.595893618,1.814651825,0
472,1005,Baseline,5,9,High Prob,1,2,1,0.3817956,1,0.45,Correct,489,1,0.553885676,-0.962869892,2.619202526,0
473,1005,Baseline,5,10,High Prob,2,1,4,0.3311484,4,0.45,Correct,490,1,0.553885676,-1.105188666,3.019794147,0
474,1005,Baseline,5,11,High Prob,1,4,3,0.4532483,3,0.6,Correct,491,1,0.553885676,-0.79131518,2.206296196,0
475,1005,Baseline,5,12,High Prob,4,3,2,0.3259592,2,0.3,Correct,492,1,0.553885676,-1.120983059,3.067868617,0
476,1005,Baseline,5,13,High Prob,3,2,4,0.35,4,0.25,Correct,493,1,0.553885676,-1.049822124,2.857142857,0
477,1005,Baseline,5,14,High Prob,2,4,1,0.310732,1,0.2,Correct,494,1,0.553885676,-1.168824475,3.21820733,0
478,1005,Baseline,5,15,High Prob,4,1,3,0.2974416,3,0.4,Correct,495,1,0.553885676,-1.212537376,3.362004508,0
479,1005,Baseline,5,16,High Prob,1,3,4,0.3308199,4,0.45,Correct,496,1,0.553885676,-1.10618116,3.022792764,0
480,1005,Baseline,5,17,Low Prob,3,4,1,0.5008877,1,0.2,Correct,497,1,0.581374264,-0.691373355,1.996455493,0
481,1005,Baseline,5,19,High Prob,1,3,4,0.3970173,4,0.55,Correct,499,1,0.553885676,-0.923775422,2.518781927,0
482,1005,Baseline,5,20,High Prob,3,4,2,0.314414,2,0.45,Correct,500,1,0.553885676,-1.15704469,3.180519951,0
483,1005,Baseline,5,21,High Prob,4,2,3,0.4691087,3,0.6,Correct,501,1,0.553885676,-0.756920768,2.131702098,0
484,1005,Baseline,5,22,High Prob,2,3,1,0.2731741,1,0.4,Correct,502,1,0.553885676,-1.297645958,3.660669148,0
485,1005,Baseline,5,24,High Prob,1,2,1,0.3672675,1,0.35,Correct,504,1,0.553885676,-1.001664814,2.72281103,0
486,1005,Baseline,5,25,High Prob,2,1,4,0.39732,4,0.45,Correct,505,1,0.553885676,-0.923013278,2.516862982,0
487,1005,Baseline,5,26,High Prob,1,4,3,0.4047042,3,0.2,Correct,506,1,0.553885676,-0.904598849,2.470940504,0
488,1005,Baseline,5,27,High Prob,4,3,2,0.3134022,2,0.25,Correct,507,1,0.553885676,-1.160267929,3.190788067,0
489,1005,Baseline,5,28,High Prob,3,2,4,0.3501182,4,0.35,Correct,508,1,0.553885676,-1.049484467,2.856178285,0
490,1005,Baseline,5,29,High Prob,2,4,1,0.3368394,1,0.35,Correct,509,1,0.553885676,-1.08814902,2.968773843,0
491,1005,Baseline,5,30,Low Prob,4,1,2,0.4702174,2,0.3,Correct,510,1,0.581374264,-0.754560138,2.126675874,0
492,1005,Baseline,5,31,High Prob,1,2,1,0.3522822,1,0.45,Correct,511,1,0.553885676,-1.04332272,2.838633346,0
493,1005,Baseline,5,32,High Prob,2,1,4,0.4009854,4,0.4,Correct,512,1,0.553885676,-0.913830261,2.493856385,0
494,1005,Baseline,5,33,High Prob,1,4,3,0.2976591,3,0.55,Correct,513,1,0.553885676,-1.211806407,3.359547885,0
495,1005,Baseline,5,34,High Prob,4,3,2,0.3650977,2,0.4,Correct,514,1,0.553885676,-1.00759029,2.738992878,0
496,1005,Baseline,5,35,High Prob,3,2,4,0.4151737,4,0.35,Correct,515,1,0.553885676,-0.879058292,2.408630412,0
497,1005,Baseline,5,36,High Prob,2,4,1,0.3312082,1,0.45,Correct,516,1,0.553885676,-1.105008098,3.01924892,0
498,1005,Baseline,5,37,High Prob,4,1,3,0.2972636,3,0.5,Correct,517,1,0.553885676,-1.213135992,3.36401766,0
499,1005,Baseline,5,38,High Prob,1,3,4,0.4526065,4,0.2,Correct,518,1,0.553885676,-0.792732184,2.209424743,0
500,1005,Baseline,5,39,High Prob,3,4,2,0.4093667,2,0.6,Correct,519,1,0.553885676,-0.893143948,2.442797619,0
501,1005,Baseline,5,40,High Prob,4,2,3,0.4760678,3,0.3,Correct,520,1,0.553885676,-0.742194998,2.100541141,0
502,1005,Baseline,5,41,High Prob,2,3,1,0.4461273,1,0.25,Correct,521,1,0.553885676,-0.807150942,2.24151268,0
503,1005,Baseline,5,42,Low Prob,3,1,4,0.3455099,4,0.45,Correct,522,1,0.581374264,-1.062733982,2.894273073,0
504,1005,Baseline,5,43,High Prob,1,4,3,0.2989006,3,0.4,Correct,523,1,0.553885676,-1.207644202,3.345593819,0
505,1005,Baseline,5,44,High Prob,4,3,2,0.2976076,2,0.5,Correct,524,1,0.553885676,-1.211979439,3.360129244,0
506,1005,Baseline,5,45,High Prob,3,2,4,0.3729803,4,0.2,Correct,525,1,0.553885676,-0.986229676,2.68110675,0
507,1005,Baseline,5,46,High Prob,2,4,1,0.2791022,1,0.35,Correct,526,1,0.553885676,-1.276177256,3.582916939,0
508,1005,Baseline,5,47,High Prob,4,1,3,0.2810894,3,0.45,Correct,527,1,0.553885676,-1.269082511,3.557587017,0
509,1005,Baseline,5,48,High Prob,1,3,4,0.3111339,4,0.55,Correct,528,1,0.553885676,-1.167531913,3.214050285,0
510,1005,Baseline,5,49,High Prob,3,4,2,0.5258429,2,0.3,Correct,529,1,0.553885676,-0.64275278,1.901708666,0
511,1005,Baseline,5,50,High Prob,4,2,3,0.4258748,3,0.35,Correct,530,1,0.553885676,-0.853609873,2.348107942,0
512,1005,Baseline,5,51,Low Prob,2,3,4,0.3059184,4,0.55,Correct,531,1,0.581374264,-1.184436879,3.268845548,0
513,1005,Baseline,5,52,High Prob,3,4,2,0.4807126,2,0.5,Correct,532,1,0.553885676,-0.732485693,2.080245036,0
514,1005,Baseline,5,53,Low Prob,4,2,1,0.2907795,1,0.25,Correct,533,1,0.581374264,-1.235190031,3.439031981,0
515,1005,Baseline,5,54,High Prob,2,1,4,0.3621032,4,0.3,Correct,534,1,0.553885676,-1.015826025,2.761643642,0
516,1005,Baseline,5,55,High Prob,1,4,3,0.3388592,3,0.2,Correct,535,1,0.553885676,-1.082170597,2.951078206,0
517,1005,Baseline,5,56,High Prob,4,3,2,0.3981979,2,0.55,Correct,536,1,0.553885676,-0.920806161,2.511314098,0
518,1005,Baseline,5,57,High Prob,3,2,4,0.268922,4,0.4,Correct,537,1,0.553885676,-1.313333904,3.71855036,0
519,1005,Baseline,5,58,High Prob,2,4,1,0.3109595,1,0.25,Correct,538,1,0.553885676,-1.1680926,3.215852868,0
520,1005,Baseline,5,59,High Prob,4,1,3,0.2716674,3,0.25,Correct,539,1,0.553885676,-1.303176755,3.680971659,0
521,1005,Baseline,5,60,High Prob,1,3,4,0.3156951,4,0.2,Correct,540,1,0.553885676,-1.152978405,3.167613308,0
522,1005,Baseline,5,61,Low Prob,3,4,1,0.2817525,1,0.5,Correct,541,1,0.581374264,-1.266726253,3.549214293,0
523,1005,Baseline,5,62,High Prob,4,1,3,0.2951973,3,0.55,Correct,542,1,0.553885676,-1.220111333,3.387564859,0
524,1005,Baseline,5,63,High Prob,1,3,4,0.3065137,4,0.2,Correct,543,1,0.553885676,-1.182492826,3.262496913,0
525,1005,Baseline,5,64,Low Prob,3,4,1,0.3332247,1,0.6,Correct,544,1,0.581374264,-1.098938242,3.000978019,0
526,1005,Baseline,5,65,High Prob,4,1,3,0.368607,3,0.35,Correct,545,1,0.553885676,-0.998024243,2.712916467,0
527,1005,Baseline,5,66,High Prob,1,3,4,0.2606173,4,0.3,Correct,546,1,0.553885676,-1.344702231,3.837043819,0
528,1005,Baseline,5,67,High Prob,3,4,2,0.2833369,2,0.35,Correct,547,1,0.553885676,-1.26111863,3.529367336,0
529,1005,Baseline,5,68,Low Prob,4,2,1,0.2527145,1,0.45,Correct,548,1,0.581374264,-1.375494886,3.957034519,0
530,1005,Baseline,5,69,High Prob,2,1,4,0.273424,4,0.4,Correct,549,1,0.553885676,-1.296731575,3.657323424,0
531,1005,Baseline,5,70,Low Prob,1,4,2,0.3134622,1,0.3,Wrong,550,0,0.495194896,-1.1600765,3.190177316,1
532,1005,Baseline,5,72,Low Prob,2,1,3,0.5676192,3,0.3,Correct,552,1,0.581374264,-0.566304508,1.761744493,0
533,1005,Baseline,5,76,Low Prob,2,3,4,0.276566,4,0.35,Correct,556,1,0.581374264,-1.285305788,3.61577345,0
534,1005,Baseline,5,77,High Prob,3,4,2,0.4645943,2,0.2,Correct,557,1,0.553885676,-0.766590727,2.152415559,0
535,1005,Baseline,5,78,High Prob,4,2,3,0.347331,3,0.45,Correct,558,1,0.553885676,-1.057477063,2.879098036,0
536,1005,Baseline,5,80,High Prob,3,1,2,0.4981641,2,0.35,Correct,560,1,0.553885676,-0.696825738,2.007370664,0
537,1005,Baseline,5,82,High Prob,2,1,4,0.4209753,4,0.6,Correct,562,1,0.553885676,-0.865181117,2.375436279,0
538,1005,Baseline,5,84,High Prob,4,3,2,0.4444352,2,0.4,Correct,564,1,0.553885676,-0.810951016,2.250046801,0
539,1005,Baseline,5,85,High Prob,3,2,4,0.435874,4,0.55,Correct,565,1,0.553885676,-0.830402068,2.294240996,0
540,1005,Baseline,5,86,High Prob,2,4,1,0.2952513,1,0.25,Correct,566,1,0.553885676,-1.219928421,3.38694529,0
541,1005,Baseline,5,87,Low Prob,4,1,2,0.446587,2,0.3,Correct,567,1,0.581374264,-0.806121049,2.239205351,0
542,1005,Baseline,5,88,High Prob,1,2,1,0.3939854,1,0.45,Correct,568,1,0.553885676,-0.931441426,2.53816512,0
543,1005,Baseline,5,89,High Prob,2,1,4,0.4393529,4,0.45,Correct,569,1,0.553885676,-0.822452316,2.276074654,0
544,1005,Baseline,5,90,High Prob,1,4,3,0.5007579,3,0.4,Correct,570,1,0.553885676,-0.691632528,1.996972988,0
545,1005,Baseline,5,91,High Prob,4,3,2,0.3515396,2,0.4,Correct,571,1,0.553885676,-1.045432914,2.844629737,0
546,1005,Baseline,5,92,Low Prob,3,2,3,0.3941639,3,0.55,Correct,572,1,0.581374264,-0.930988466,2.537015693,0
547,1005,Baseline,5,93,Low Prob,2,3,4,0.2935977,4,0.5,Correct,573,1,0.581374264,-1.225544816,3.406021232,0
548,1005,Baseline,5,94,High Prob,3,4,2,0.3649411,2,0.3,Correct,574,1,0.553885676,-1.008019308,2.740168208,0
549,1005,Baseline,5,95,High Prob,4,2,3,0.2630055,3,0.55,Correct,575,1,0.553885676,-1.335580334,3.802201855,0
550,1005,Baseline,5,96,Low Prob,2,3,4,0.2637073,4,0.5,Correct,576,1,0.581374264,-1.332915503,3.792083116,0
551,1005,Baseline,5,97,Low Prob,3,4,1,0.4284699,1,0.4,Correct,577,1,0.581374264,-0.847534788,2.333886231,0
552,1005,Baseline,5,98,High Prob,4,1,3,0.2725193,3,0.25,Correct,578,1,0.553885676,-1.300045842,3.669464878,0
553,1005,Baseline,5,99,Low Prob,1,3,2,0.2345457,2,0.25,Correct,579,1,0.581374264,-1.450104827,4.26356143,0
554,1005,Baseline,5,100,High Prob,3,2,4,0.2239334,4,0.4,Correct,580,1,0.553885676,-1.496406593,4.465613437,0
555,1005,Baseline,5,101,High Prob,2,4,1,0.2979574,1,0.3,Correct,581,1,0.553885676,-1.210804756,3.356184475,0
556,1005,Baseline,5,102,High Prob,4,1,3,0.2713461,3,0.35,Correct,582,1,0.553885676,-1.304360151,3.685330285,0
557,1005,Baseline,5,103,High Prob,1,3,4,0.3013809,4,0.55,Correct,583,1,0.553885676,-1.199380366,3.318060302,0
558,1005,Baseline,5,104,Low Prob,3,4,1,0.3021207,1,0.45,Correct,584,1,0.581374264,-1.196928673,3.3099354,0
559,1005,Baseline,5,105,High Prob,4,1,3,0.2887868,3,0.4,Correct,585,1,0.553885676,-1.242066579,3.462762148,0
560,1005,Baseline,5,106,High Prob,1,3,4,0.2641487,4,0.3,Correct,586,1,0.553885676,-1.331243077,3.785746438,0
561,1005,Baseline,5,107,High Prob,3,4,2,0.3389524,2,0.25,Correct,587,1,0.553885676,-1.081895594,2.950266763,0
562,1005,Baseline,5,108,Low Prob,4,2,1,0.2543108,1,0.55,Correct,588,1,0.581374264,-1.369198138,3.932196352,0
563,1005,Baseline,5,110,High Prob,1,3,4,0.2730656,4,0.5,Correct,590,1,0.553885676,-1.29804322,3.66212368,0
564,1005,Baseline,5,111,High Prob,3,4,2,0.3691351,2,0.5,Correct,591,1,0.553885676,-0.996592577,2.709035256,0
565,1005,Baseline,5,112,High Prob,4,2,3,0.3071333,3,0.35,Correct,592,1,0.553885676,-1.180473424,3.255915265,0
566,1005,Baseline,5,113,High Prob,2,3,1,0.2759323,1,0.45,Correct,593,1,0.553885676,-1.287599733,3.624077355,0
567,1005,Baseline,5,114,High Prob,3,1,2,0.4999312,2,0.5,Correct,594,1,0.553885676,-0.69328479,2.000275238,0
568,1005,Baseline,5,116,Low Prob,2,1,3,0.4587464,3,0.2,Correct,596,1,0.581374264,-0.779257727,2.179853618,0
569,1005,Baseline,5,117,High Prob,1,3,4,0.3654531,4,0.25,Correct,597,1,0.553885676,-1.006617325,2.736329231,0
570,1005,Baseline,5,119,High Prob,4,2,3,0.3264157,3,0.45,Correct,599,1,0.553885676,-1.119583557,3.063578131,0
571,1005,Baseline,5,120,High Prob,2,3,1,0.3349325,1,0.25,Correct,600,1,0.553885676,-1.09382626,2.985676218,0
572,1005,Baseline,6,1,High Prob,2,3,1,0.2896846,1,0.45,Correct,601,1,0.553885676,-1.238962534,3.452030243,0
573,1005,Baseline,6,2,High Prob,3,1,2,0.3330154,2,0.2,Correct,602,1,0.553885676,-1.099566544,3.002864132,0
574,1005,Baseline,6,3,High Prob,1,2,1,0.3424161,1,0.6,Correct,603,1,0.553885676,-1.071728615,2.920423426,0
575,1005,Baseline,6,4,High Prob,2,1,4,0.297849,4,0.35,Correct,604,1,0.553885676,-1.211168632,3.357405934,0
576,1005,Baseline,6,5,High Prob,1,4,3,0.2611927,3,0.6,Correct,605,1,0.553885676,-1.34249683,3.828590922,0
577,1005,Baseline,6,6,High Prob,4,3,2,0.3198537,2,0.25,Correct,606,1,0.553885676,-1.139891575,3.126429364,0
578,1005,Baseline,6,7,High Prob,3,2,4,0.3238929,4,0.35,Correct,607,1,0.553885676,-1.127342373,3.087440324,0
579,1005,Baseline,6,8,High Prob,2,4,1,0.3199862,1,0.55,Correct,608,1,0.553885676,-1.139477409,3.125134771,0
580,1005,Baseline,6,9,High Prob,4,1,3,0.2799906,3,0.25,Correct,609,1,0.553885676,-1.272999248,3.571548473,0
581,1005,Baseline,6,10,High Prob,1,3,4,0.3260934,4,0.55,Correct,610,1,0.553885676,-1.120571436,3.066606071,0
582,1005,Baseline,6,11,High Prob,3,4,2,0.3021124,2,0.25,Correct,611,1,0.553885676,-1.196956145,3.310026335,0
583,1005,Baseline,6,12,High Prob,4,2,3,0.2628203,3,0.25,Correct,612,1,0.553885676,-1.33628475,3.80488113,0
584,1005,Baseline,6,13,High Prob,2,3,1,0.2375263,1,0.35,Correct,613,1,0.553885676,-1.437476925,4.210060107,0
585,1005,Baseline,6,14,High Prob,3,1,2,0.4429258,2,0.6,Correct,614,1,0.553885676,-0.814353017,2.257714498,0
586,1005,Baseline,6,15,High Prob,1,2,1,0.3223102,1,0.55,Correct,615,1,0.553885676,-1.132240843,3.102601159,0
587,1005,Baseline,6,16,High Prob,2,1,4,0.3463701,4,0.25,Correct,616,1,0.553885676,-1.060247422,2.887085231,0
588,1005,Baseline,6,17,High Prob,1,4,3,0.3317446,3,0.4,Correct,617,1,0.553885676,-1.103389883,3.014367076,0
589,1005,Baseline,6,18,High Prob,4,3,2,0.2490895,2,0.5,Correct,618,1,0.553885676,-1.389943009,4.014621251,0
590,1005,Baseline,6,19,High Prob,3,2,4,0.3898802,4,0.6,Correct,619,1,0.553885676,-0.941915767,2.564890446,0
591,1005,Baseline,6,20,High Prob,2,4,1,0.2951827,1,0.35,Correct,620,1,0.553885676,-1.220160792,3.387732411,0
592,1005,Baseline,6,21,High Prob,4,1,3,0.2326244,3,0.45,Correct,621,1,0.553885676,-1.458330143,4.298775193,0
593,1005,Baseline,6,22,Low Prob,1,3,2,0.3419364,2,0.2,Correct,622,1,0.581374264,-1.073130524,2.924520466,0
594,1005,Baseline,6,23,Low Prob,3,2,3,0.3753596,3,0.4,Correct,623,1,0.581374264,-0.979870779,2.664111961,0
595,1005,Baseline,6,24,Low Prob,2,3,4,0.2613906,4,0.45,Correct,624,1,0.581374264,-1.341739439,3.825692278,0
596,1005,Baseline,6,26,High Prob,4,2,3,0.4175269,3,0.6,Correct,626,1,0.553885676,-0.873406306,2.395055265,0
597,1005,Baseline,6,27,Low Prob,2,3,4,0.3615851,4,0.55,Correct,627,1,0.581374264,-1.017257857,2.765600684,0
598,1005,Baseline,6,28,High Prob,3,4,2,0.2943239,2,0.5,Correct,628,1,0.553885676,-1.223074417,3.397617387,0
599,1005,Baseline,6,29,High Prob,4,2,3,0.2257138,3,0.6,Correct,629,1,0.553885676,-1.488487454,4.430389281,0
600,1005,Baseline,6,30,High Prob,2,3,1,0.4417668,1,0.35,Correct,630,1,0.553885676,-0.816973138,2.263637738,0
601,1005,Baseline,6,31,High Prob,3,1,2,0.4571354,2,0.35,Correct,631,1,0.553885676,-0.782775652,2.187535684,0
602,1005,Baseline,6,32,High Prob,1,2,1,0.4278481,1,0.25,Correct,632,1,0.553885676,-0.848987053,2.337278113,0
603,1005,Baseline,6,33,High Prob,2,1,4,0.2738743,4,0.2,Correct,633,1,0.553885676,-1.295086037,3.651310108,0
604,1005,Baseline,6,34,High Prob,1,4,3,0.3399413,3,0.45,Correct,634,1,0.553885676,-1.078982323,2.941684344,0
605,1005,Baseline,6,35,High Prob,4,3,2,0.3653402,2,0.2,Correct,635,1,0.553885676,-1.006926305,2.73717483,0
606,1005,Baseline,6,36,High Prob,3,2,4,0.3053557,4,0.3,Correct,636,1,0.553885676,-1.186277952,3.274869275,0
607,1005,Baseline,6,37,High Prob,2,4,1,0.3000035,1,0.2,Correct,637,1,0.553885676,-1.203961138,3.333294445,0
608,1005,Baseline,6,38,High Prob,4,1,3,0.206765,3,0.4,Correct,638,1,0.553885676,-1.576172396,4.836408483,0
609,1005,Baseline,6,39,Low Prob,1,3,2,0.2794847,2,0.35,Correct,639,1,0.581374264,-1.274807728,3.578013394,0
610,1005,Baseline,6,40,High Prob,3,2,4,0.2475021,4,0.5,Correct,640,1,0.553885676,-1.396336212,4.040369758,0
611,1005,Baseline,6,41,High Prob,2,4,1,0.2289028,1,0.6,Correct,641,1,0.553885676,-1.47445782,4.368666526,0
612,1005,Baseline,6,42,High Prob,4,1,3,0.2729231,3,0.25,Correct,642,1,0.553885676,-1.298565208,3.664035767,0
613,1005,Baseline,6,43,High Prob,1,3,4,0.3670107,4,0.55,Correct,643,1,0.553885676,-1.002364276,2.7247162,0
614,1005,Baseline,6,44,High Prob,3,4,2,0.3570435,3,0.25,Wrong,644,0,0.461059365,-1.029897656,2.800779177,1
615,1005,Baseline,6,45,Low Prob,4,2,1,0.3777602,1,0.3,Correct,645,1,0.581374264,-0.973495676,2.647181995,0
616,1005,Baseline,6,46,High Prob,2,1,4,0.3078277,4,0.55,Correct,646,1,0.553885676,-1.178215068,3.248570548,0
617,1005,Baseline,6,47,High Prob,1,4,3,0.3324929,3,0.25,Correct,647,1,0.553885676,-1.101136772,3.007583019,0
618,1005,Baseline,6,48,High Prob,4,3,2,0.2538354,2,0.4,Correct,648,1,0.553885676,-1.371069254,3.939560834,0
619,1005,Baseline,6,49,High Prob,3,2,4,0.3566162,4,0.35,Correct,649,1,0.553885676,-1.031095146,2.80413509,0
620,1005,Baseline,6,50,High Prob,2,4,1,0.2573114,1,0.5,Correct,650,1,0.553885676,-1.357468254,3.886341608,0
621,1005,Baseline,6,51,High Prob,4,1,3,0.2260016,3,0.5,Correct,651,1,0.553885676,-1.4872132,4.424747435,0
622,1005,Baseline,6,52,High Prob,1,3,4,0.3400617,4,0.5,Correct,652,1,0.553885676,-1.078628207,2.94064283,0
623,1005,Baseline,6,53,High Prob,3,4,2,0.3894953,2,0.4,Correct,653,1,0.553885676,-0.94290348,2.567425075,0
624,1005,Baseline,6,54,High Prob,4,2,3,0.4509081,3,0.45,Correct,654,1,0.553885676,-0.79649173,2.217746809,0
625,1005,Baseline,6,55,High Prob,2,3,1,0.2415839,1,0.35,Correct,655,1,0.553885676,-1.420538454,4.13934869,0
626,1005,Baseline,6,56,Low Prob,3,1,4,0.2229719,4,0.6,Correct,656,1,0.581374264,-1.500709524,4.484870067,0
627,1005,Baseline,6,57,High Prob,1,4,3,0.3750258,3,0.35,Correct,657,1,0.553885676,-0.980760455,2.666483213,0
628,1005,Baseline,6,58,Low Prob,4,3,1,0.501149,1,0.45,Correct,658,1,0.581374264,-0.690851817,1.995414537,0
629,1005,Baseline,6,59,Low Prob,3,1,4,0.4098159,4,0.55,Correct,659,1,0.581374264,-0.892047245,2.440120064,0
630,1005,Baseline,6,60,High Prob,1,4,3,0.380496,3,0.3,Correct,660,1,0.553885676,-0.966279614,2.628148522,0
631,1005,Baseline,6,61,High Prob,4,3,2,0.3445731,2,0.5,Correct,661,1,0.553885676,-1.065449019,2.90214181,0
632,1005,Baseline,6,62,Low Prob,3,2,3,0.3900125,3,0.5,Correct,662,1,0.581374264,-0.941576489,2.564020384,0
633,1005,Baseline,6,63,High Prob,2,3,1,0.3273422,1,0.35,Correct,663,1,0.553885676,-1.116749172,3.054907067,0
634,1005,Baseline,6,64,Low Prob,3,1,4,0.2693958,4,0.3,Correct,664,1,0.581374264,-1.311573605,3.712010358,0
635,1005,Baseline,6,65,High Prob,1,4,3,0.4894427,3,0.2,Correct,665,1,0.553885676,-0.714487882,2.043140086,0
636,1005,Baseline,6,66,High Prob,4,3,2,0.4888,2,0.3,Correct,666,1,0.553885676,-0.715801871,2.045826514,0
637,1005,Baseline,6,67,High Prob,3,2,4,0.3682738,4,0.5,Correct,667,1,0.553885676,-0.998928596,2.715371009,0
638,1005,Baseline,6,68,Low Prob,2,4,3,0.4503197,3,0.35,Correct,668,1,0.581374264,-0.797797504,2.220644578,0
639,1005,Baseline,6,69,High Prob,4,3,2,0.4129878,2,0.45,Correct,669,1,0.553885676,-0.884337226,2.421379033,0
640,1005,Baseline,6,70,Low Prob,3,2,3,0.5537703,3,0.45,Correct,670,1,0.581374264,-0.591005299,1.805802875,0
641,1005,Baseline,6,71,High Prob,2,3,1,0.2884691,1,0.45,Correct,671,1,0.553885676,-1.243167304,3.466575796,0
642,1005,Baseline,6,72,High Prob,3,1,2,0.4858127,2,0.35,Correct,672,1,0.553885676,-0.72193212,2.05840646,0
643,1005,Baseline,6,73,Low Prob,1,2,4,0.301239,4,0.5,Correct,673,1,0.581374264,-1.199851309,3.319623289,0
644,1005,Baseline,6,74,High Prob,2,4,1,0.2999534,2,0.5,Wrong,674,0,0.461059365,-1.20412815,3.333851192,1
645,1005,Baseline,6,75,High Prob,4,1,3,0.4546365,3,0.2,Correct,675,1,0.553885676,-0.78825708,2.199559428,0
646,1005,Baseline,6,76,Low Prob,1,3,2,0.2713655,2,0.5,Correct,676,1,0.581374264,-1.304288658,3.685066819,0
647,1005,Baseline,6,77,High Prob,3,2,4,0.339413,4,0.4,Correct,677,1,0.553885676,-1.080537624,2.946263107,0
648,1005,Baseline,6,78,High Prob,2,4,1,0.3128066,1,0.3,Correct,678,1,0.553885676,-1.162170171,3.196863493,0
649,1005,Baseline,6,79,High Prob,4,1,3,0.3714947,3,0.2,Correct,679,1,0.553885676,-0.990220681,2.691828443,0
650,1005,Baseline,6,80,High Prob,1,3,4,0.3595396,4,0.3,Correct,680,1,0.553885676,-1.022930955,2.781334796,0
651,1005,Baseline,6,81,High Prob,3,4,2,0.4542458,2,0.45,Correct,681,1,0.553885676,-0.789116818,2.201451285,0
652,1005,Baseline,6,82,High Prob,4,2,3,0.3809894,3,0.55,Correct,682,1,0.553885676,-0.964983726,2.62474494,0
653,1005,Baseline,6,83,High Prob,2,3,1,0.293058,1,0.6,Correct,683,1,0.553885676,-1.227384737,3.412293812,0
654,1005,Baseline,6,84,Low Prob,3,1,4,0.2943892,4,0.45,Correct,684,1,0.581374264,-1.222852578,3.396863744,0
655,1005,Baseline,6,85,High Prob,1,4,3,0.3058057,3,0.6,Correct,685,1,0.553885676,-1.184805346,3.270050231,0
656,1005,Baseline,6,86,High Prob,4,3,2,0.2525396,2,0.6,Correct,686,1,0.553885676,-1.376187211,3.959775021,0
657,1005,Baseline,6,87,High Prob,3,2,4,0.3012758,4,0.5,Correct,687,1,0.553885676,-1.199729155,3.319217806,0
658,1005,Baseline,6,88,High Prob,2,4,1,0.4059637,1,0.25,Correct,688,1,0.553885676,-0.901491532,2.463274426,0
659,1005,Baseline,6,89,High Prob,4,1,3,0.2447038,3,0.4,Correct,689,1,0.553885676,-1.407706779,4.086573237,0
660,1005,Baseline,6,90,High Prob,1,3,4,0.3760299,4,0.45,Correct,690,1,0.553885676,-0.978086617,2.659362992,0
661,1005,Baseline,6,91,High Prob,3,4,2,0.3680784,2,0.2,Correct,691,1,0.553885676,-0.99945932,2.716812505,0
662,1005,Baseline,6,92,High Prob,4,2,3,0.3341341,3,0.45,Correct,692,1,0.553885676,-1.09621287,2.992810372,0
663,1005,Baseline,6,93,High Prob,2,3,1,0.3235343,1,0.3,Correct,693,1,0.553885676,-1.128450143,3.090862391,0
664,1005,Baseline,6,94,Low Prob,3,1,4,0.305604,4,0.5,Correct,694,1,0.581374264,-1.185465133,3.272208479,0
665,1005,Baseline,6,95,High Prob,1,4,3,0.2723051,3,0.5,Correct,695,1,0.553885676,-1.30083215,3.672351344,0
666,1005,Baseline,6,96,Low Prob,4,3,1,0.4723424,2,0.3,Wrong,696,0,0.495194896,-0.750051133,2.117108267,1
667,1005,Baseline,6,97,High Prob,3,1,2,0.458404,2,0.25,Correct,697,1,0.553885676,-0.780004388,2.181481837,0
668,1005,Baseline,6,98,Low Prob,1,2,4,0.3590962,4,0.4,Correct,698,1,0.581374264,-1.02416496,2.784769095,0
669,1005,Baseline,6,99,High Prob,2,4,1,0.3518416,1,0.6,Correct,699,1,0.553885676,-1.044574205,2.842188076,0
670,1005,Baseline,6,100,High Prob,4,1,3,0.418533,3,0.35,Correct,700,1,0.553885676,-0.870999539,2.389297857,0
671,1005,Baseline,6,101,High Prob,1,3,4,0.3765975,4,0.6,Correct,701,1,0.553885676,-0.976578301,2.655354855,0
672,1005,Baseline,6,102,High Prob,3,4,2,0.4406606,2,0.4,Correct,702,1,0.553885676,-0.819480314,2.269320198,0
673,1005,Baseline,6,103,High Prob,4,2,3,0.3660716,3,0.2,Correct,703,1,0.553885676,-1.004926336,2.731706038,0
674,1005,Baseline,6,104,Low Prob,2,3,4,0.3241501,4,0.25,Correct,704,1,0.581374264,-1.126548599,3.084990565,0
675,1005,Baseline,6,105,High Prob,3,4,2,0.3921732,2,0.35,Correct,705,1,0.553885676,-0.9360517,2.549893771,0
676,1005,Baseline,6,106,High Prob,4,2,3,0.2715354,3,0.6,Correct,706,1,0.553885676,-1.303662761,3.682761069,0
677,1005,Baseline,6,107,Low Prob,2,3,4,0.3075964,3,0.4,Wrong,707,0,0.495194896,-1.178966745,3.251013341,1
678,1005,Baseline,6,108,High Prob,3,4,2,0.4503285,2,0.5,Correct,708,1,0.553885676,-0.797777963,2.220601183,0
679,1005,Baseline,6,109,High Prob,4,2,3,0.3470946,3,0.5,Correct,709,1,0.553885676,-1.058157914,2.881058939,0
680,1005,Baseline,6,110,High Prob,2,3,1,0.2924519,1,0.6,Correct,710,1,0.553885676,-1.22945507,3.419365714,0
681,1005,Baseline,6,111,High Prob,3,1,2,0.4918214,2,0.3,Correct,711,1,0.553885676,-0.709639637,2.033258415,0
682,1005,Baseline,6,112,High Prob,1,2,1,0.4611461,1,0.25,Correct,712,1,0.553885676,-0.774040366,2.168510153,0
683,1005,Baseline,6,113,High Prob,2,1,4,0.42393,4,0.45,Correct,713,1,0.553885676,-0.858186932,2.358880004,0
684,1005,Baseline,6,115,High Prob,4,2,3,0.254031,3,0.5,Correct,715,1,0.553885676,-1.370298972,3.936527432,0
685,1005,Baseline,6,116,High Prob,2,3,1,0.3027512,1,0.5,Correct,716,1,0.553885676,-1.194843933,3.303042234,0
686,1005,Baseline,6,117,Low Prob,3,1,4,0.4254516,4,0.2,Correct,717,1,0.581374264,-0.854604086,2.350443623,0
687,1005,Baseline,6,118,High Prob,1,4,3,0.4495162,3,0.55,Correct,718,1,0.553885676,-0.799583386,2.224613929,0
688,1005,Baseline,6,119,High Prob,4,3,2,0.3222338,2,0.3,Correct,719,1,0.553885676,-1.13247791,3.10333677,0
689,1005,Baseline,6,120,High Prob,3,2,4,0.3483168,4,0.6,Correct,720,1,0.553885676,-1.054642868,2.870949664,0
690,1005,Baseline,7,1,High Prob,2,3,1,0.4618713,1,0.2,Correct,721,1,0.553885676,-0.772468998,2.165105301,0
691,1005,Baseline,7,2,Low Prob,3,1,4,0.3205752,4,0.25,Correct,722,1,0.581374264,-1.137638397,3.119392891,0
692,1005,Baseline,7,3,Low Prob,1,4,2,0.3366202,2,0.45,Correct,723,1,0.581374264,-1.088799987,2.970707046,0
693,1005,Baseline,7,4,High Prob,4,2,3,0.435972,3,0.35,Correct,724,1,0.553885676,-0.830177258,2.293725285,0
694,1005,Baseline,7,5,High Prob,2,3,1,0.5234,1,0.55,Correct,725,1,0.553885676,-0.647409289,1.910584639,0
695,1005,Baseline,7,7,Low Prob,1,2,4,0.3815393,4,0.4,Correct,727,1,0.581374264,-0.963541419,2.620961982,0
696,1005,Baseline,7,8,High Prob,2,4,1,0.4569361,1,0.5,Correct,728,1,0.553885676,-0.783211723,2.188489813,0
697,1005,Baseline,7,9,High Prob,4,1,3,0.4196475,3,0.45,Correct,729,1,0.553885676,-0.868340206,2.382952359,0
698,1005,Baseline,7,10,Low Prob,1,3,2,0.3877124,2,0.35,Correct,730,1,0.581374264,-0.947491451,2.57923141,0
699,1005,Baseline,7,11,Low Prob,3,2,3,0.3730816,3,0.35,Correct,731,1,0.581374264,-0.985958117,2.68037877,0
700,1005,Baseline,7,12,High Prob,2,3,1,0.3011819,1,0.2,Correct,732,1,0.553885676,-1.200040878,3.320252645,0
701,1005,Baseline,7,13,High Prob,3,1,2,0.3138669,2,0.55,Correct,733,1,0.553885676,-1.158786268,3.186063902,0
702,1005,Baseline,7,14,High Prob,1,2,1,0.3485664,1,0.4,Correct,734,1,0.553885676,-1.053926536,2.868893846,0
703,1005,Baseline,7,15,High Prob,2,1,4,0.4512767,4,0.25,Correct,735,1,0.553885676,-0.795674602,2.215935367,0
704,1005,Baseline,7,16,Low Prob,1,4,2,0.3599893,2,0.2,Correct,736,1,0.581374264,-1.02168097,2.777860342,0
705,1005,Baseline,7,17,High Prob,4,2,3,0.2786979,3,0.45,Correct,737,1,0.553885676,-1.27762688,3.588114586,0
706,1005,Baseline,7,18,High Prob,2,3,1,0.282743,1,0.4,Correct,738,1,0.553885676,-1.263216921,3.536780751,0
707,1005,Baseline,7,19,Low Prob,3,1,4,0.4541079,4,0.2,Correct,739,1,0.581374264,-0.789420444,2.202119805,0
708,1005,Baseline,7,20,Low Prob,1,4,2,0.3308567,2,0.2,Correct,740,1,0.581374264,-1.106069928,3.02245655,0
709,1005,Baseline,7,21,High Prob,4,2,3,0.3248682,3,0.2,Correct,741,1,0.553885676,-1.124335717,3.078171394,0
710,1005,Baseline,7,22,High Prob,2,3,1,0.3188989,1,0.2,Correct,742,1,0.553885676,-1.142881154,3.135790058,0
711,1005,Baseline,7,23,High Prob,3,1,2,0.3789481,2,0.55,Correct,743,1,0.553885676,-0.970356023,2.638883794,0
712,1005,Baseline,7,24,Low Prob,1,2,4,0.3290102,4,0.45,Correct,744,1,0.581374264,-1.111666526,3.039419447,0
713,1005,Baseline,7,25,High Prob,2,4,1,0.2850619,1,0.35,Correct,745,1,0.553885676,-1.255048929,3.508010015,0
714,1005,Baseline,7,26,High Prob,4,1,3,0.3084449,3,0.3,Correct,746,1,0.553885676,-1.176212058,3.24207014,0
715,1005,Baseline,7,27,High Prob,1,3,4,0.4471245,4,0.2,Correct,747,1,0.553885676,-0.8049182,2.236513544,0
716,1005,Baseline,7,28,High Prob,3,4,2,0.3824595,3,0.35,Wrong,748,0,0.461059365,-0.961132514,2.614655931,1
717,1005,Baseline,7,29,High Prob,4,2,3,0.3998579,3,0.35,Correct,749,1,0.553885676,-0.916646045,2.500888441,0
718,1005,Baseline,7,30,High Prob,2,3,1,0.2566212,1,0.35,Correct,750,1,0.553885676,-1.360154211,3.896794185,0
719,1005,Baseline,7,31,High Prob,3,1,2,0.4713206,2,0.35,Correct,751,1,0.553885676,-0.752216737,2.121698054,0
720,1005,Baseline,7,32,High Prob,1,2,1,0.3633946,1,0.2,Correct,752,1,0.553885676,-1.012265983,2.751829554,0
721,1005,Baseline,7,33,High Prob,2,1,4,0.2441375,4,0.6,Correct,753,1,0.553885676,-1.410023688,4.096052429,0
722,1005,Baseline,7,34,High Prob,1,4,3,0.3014618,3,0.3,Correct,754,1,0.553885676,-1.199111971,3.31716987,0
723,1005,Baseline,7,35,High Prob,4,3,2,0.328176,2,0.2,Correct,755,1,0.553885676,-1.114205229,3.047145434,0
724,1005,Baseline,7,36,High Prob,3,2,4,0.3222371,4,0.6,Correct,756,1,0.553885676,-1.132467669,3.103304989,0
725,1005,Baseline,7,37,High Prob,2,4,1,0.2922753,1,0.4,Correct,757,1,0.553885676,-1.230059113,3.42143178,0
726,1005,Baseline,7,38,High Prob,4,1,3,0.3116453,3,0.4,Correct,758,1,0.553885676,-1.165889597,3.208776131,0
727,1005,Baseline,7,39,High Prob,1,3,4,0.3663484,4,0.3,Correct,759,1,0.553885676,-1.004170486,2.729642057,0
728,1005,Baseline,7,40,High Prob,3,4,2,0.3703951,2,0.3,Correct,760,1,0.553885676,-0.993185005,2.699819733,0
729,1005,Baseline,7,41,Low Prob,4,2,1,0.2224776,1,0.5,Correct,761,1,0.581374264,-1.502928857,4.494834536,0
730,1005,Baseline,7,42,High Prob,2,1,4,0.3325488,4,0.6,Correct,762,1,0.553885676,-1.100968663,3.007077458,0
731,1005,Baseline,7,43,High Prob,1,4,3,0.3898996,3,0.2,Correct,763,1,0.553885676,-0.941866009,2.564762826,0
732,1005,Baseline,7,44,High Prob,4,3,2,0.3112728,2,0.35,Correct,764,1,0.553885676,-1.167085581,3.212616072,0
733,1005,Baseline,7,45,High Prob,3,2,4,0.3759845,4,0.45,Correct,765,1,0.553885676,-0.97820736,2.659684109,0
734,1005,Baseline,7,46,High Prob,2,4,1,0.2420378,1,0.55,Correct,766,1,0.553885676,-1.418661367,4.131586058,0
735,1005,Baseline,7,47,High Prob,4,1,3,0.2614163,3,0.45,Correct,767,1,0.553885676,-1.341641123,3.825316172,0
736,1005,Baseline,7,48,High Prob,1,3,4,0.2441442,4,0.55,Correct,768,1,0.553885676,-1.409996245,4.095940022,0
737,1005,Baseline,7,49,High Prob,3,4,2,0.5055309,2,0.4,Correct,769,1,0.553885676,-0.682146115,1.978118449,0
738,1005,Baseline,7,50,High Prob,4,2,3,0.4642469,3,0.5,Correct,770,1,0.553885676,-0.767338756,2.15402623,0
739,1005,Baseline,7,51,High Prob,2,3,1,0.3349644,1,0.35,Correct,771,1,0.553885676,-1.093731021,2.98539188,0
740,1005,Baseline,7,52,Low Prob,3,1,4,0.2383668,4,0.45,Correct,772,1,0.581374264,-1.433944615,4.195215105,0
741,1005,Baseline,7,53,Low Prob,1,4,2,0.4016923,2,0.45,Correct,773,1,0.581374264,-0.912068906,2.489467685,0
742,1005,Baseline,7,54,High Prob,4,2,3,0.4564404,3,0.2,Correct,774,1,0.553885676,-0.784297146,2.19086654,0
743,1005,Baseline,7,55,High Prob,2,3,1,0.265129,1,0.3,Correct,775,1,0.553885676,-1.327538779,3.771748847,0
744,1005,Baseline,7,56,High Prob,3,1,2,0.3631936,2,0.45,Correct,776,1,0.553885676,-1.012819254,2.753352482,0
745,1005,Baseline,7,57,High Prob,1,2,1,0.3779368,1,0.45,Correct,777,1,0.553885676,-0.973028293,2.645945036,0
746,1005,Baseline,7,58,High Prob,2,1,4,0.3079871,4,0.55,Correct,778,1,0.553885676,-1.17769738,3.246889237,0
747,1005,Baseline,7,59,High Prob,1,4,3,0.3567012,3,0.45,Correct,779,1,0.553885676,-1.030856822,2.803466879,0
748,1005,Baseline,7,60,High Prob,4,3,2,0.2794324,2,0.35,Correct,780,1,0.553885676,-1.274994876,3.578683073,0
749,1005,Baseline,7,61,High Prob,3,2,4,0.3254611,4,0.55,Correct,781,1,0.553885676,-1.122512333,3.072563818,0
750,1005,Baseline,7,62,High Prob,2,4,1,0.3555355,1,0.5,Correct,782,1,0.553885676,-1.034130175,2.812658652,0
751,1005,Baseline,7,63,High Prob,4,1,3,0.2802419,3,0.3,Correct,783,1,0.553885676,-1.27210212,3.568345776,0
752,1005,Baseline,7,64,High Prob,1,3,4,0.3682915,4,0.3,Correct,784,1,0.553885676,-0.998880535,2.715240509,0
753,1005,Baseline,7,65,High Prob,3,4,2,0.3143495,1,0.55,Wrong,785,0,0.461059365,-1.157249855,3.181172548,1
754,1005,Baseline,7,66,High Prob,4,2,3,0.5450593,3,0.3,Correct,786,1,0.553885676,-0.606860683,1.834662761,0
755,1005,Baseline,7,67,High Prob,2,3,1,0.2844508,1,0.35,Correct,787,1,0.553885676,-1.257194975,3.51554645,0
756,1005,Baseline,7,68,High Prob,3,1,2,0.4778864,2,0.45,Correct,788,1,0.553885676,-0.738382232,2.092547518,0
757,1005,Baseline,7,69,High Prob,1,2,1,0.4259274,1,0.4,Correct,789,1,0.553885676,-0.85348637,2.347817961,0
758,1005,Baseline,7,70,Low Prob,2,1,3,0.3699617,3,0.55,Correct,790,1,0.581374264,-0.994355792,2.702982498,0
759,1005,Baseline,7,71,Low Prob,1,3,2,0.528008,2,0.45,Correct,791,1,0.581374264,-0.638643844,1.893910698,0
760,1005,Baseline,7,72,High Prob,3,2,4,0.3060534,4,0.2,Correct,792,1,0.553885676,-1.183995682,3.267403662,0
761,1005,Baseline,7,73,High Prob,2,4,1,0.4707546,1,0.35,Correct,793,1,0.553885676,-0.75341834,2.124249025,0
762,1005,Baseline,7,74,High Prob,4,1,3,0.3368286,3,0.45,Correct,794,1,0.553885676,-1.088181083,2.968869033,0
763,1005,Baseline,7,75,High Prob,1,3,4,0.5182003,4,0.3,Correct,795,1,0.553885676,-0.657393432,1.929755733,0
764,1005,Baseline,7,76,Low Prob,3,4,1,0.4382414,1,0.25,Correct,796,1,0.581374264,-0.824985379,2.281847402,0
765,1005,Baseline,7,77,High Prob,4,1,3,0.3676505,3,0.5,Correct,797,1,0.553885676,-1.00062252,2.719974541,0
766,1005,Baseline,7,78,High Prob,1,3,4,0.3837086,4,0.4,Correct,798,1,0.553885676,-0.957871869,2.60614435,0
767,1005,Baseline,7,79,High Prob,3,4,2,0.3750995,2,0.6,Correct,799,1,0.553885676,-0.980563955,2.665959299,0
768,1005,Baseline,7,81,High Prob,2,3,1,0.3098766,1,0.4,Correct,801,1,0.553885676,-1.171581125,3.227091042,0
769,1005,Baseline,7,82,High Prob,3,1,2,0.3545776,2,0.55,Correct,802,1,0.553885676,-1.036828057,2.820257117,0
770,1005,Baseline,7,83,High Prob,1,2,1,0.4332792,1,0.45,Correct,803,1,0.553885676,-0.836372955,2.307980628,0
771,1005,Baseline,7,84,High Prob,2,1,4,0.3746697,4,0.6,Correct,804,1,0.553885676,-0.981710441,2.669017537,0
772,1005,Baseline,7,85,High Prob,1,4,3,0.2867723,3,0.6,Correct,805,1,0.553885676,-1.249066758,3.487087142,0
773,1005,Baseline,7,86,High Prob,4,3,2,0.4081974,2,0.25,Correct,806,1,0.553885676,-0.896004398,2.449795124,0
774,1005,Baseline,7,87,High Prob,3,2,4,0.3248801,4,0.45,Correct,807,1,0.553885676,-1.124299088,3.078058644,0
775,1005,Baseline,7,88,High Prob,2,4,1,0.3669329,1,0.6,Correct,808,1,0.553885676,-1.002576281,2.725293916,0
776,1005,Baseline,7,89,High Prob,4,1,3,0.3429945,3,0.2,Correct,809,1,0.553885676,-1.070040867,2.915498645,0
777,1005,Baseline,7,90,Low Prob,1,3,2,0.2663047,2,0.35,Correct,810,1,0.581374264,-1.323114137,3.755097075,0
778,1005,Baseline,7,91,High Prob,3,2,4,0.2563608,4,0.35,Correct,811,1,0.553885676,-1.361169452,3.900752377,0
779,1005,Baseline,7,92,High Prob,2,4,1,0.3370768,1,0.5,Correct,812,1,0.553885676,-1.087444481,2.966682964,0
780,1005,Baseline,7,93,High Prob,4,1,3,0.2525294,3,0.55,Correct,813,1,0.553885676,-1.376227601,3.959934962,0
781,1005,Baseline,7,94,High Prob,1,3,4,0.4731823,4,0.2,Correct,814,1,0.553885676,-0.748274552,2.113350394,0
782,1005,Baseline,7,95,High Prob,3,4,2,0.3832837,2,0.55,Correct,815,1,0.553885676,-0.958979833,2.609033465,0
783,1005,Baseline,7,96,High Prob,4,2,3,0.342646,4,0.2,Wrong,816,0,0.461059365,-1.071057435,2.918463954,1
784,1005,Baseline,7,98,High Prob,3,1,2,0.4140791,2,0.45,Correct,818,1,0.553885676,-0.881698261,2.414997521,0
785,1005,Baseline,7,99,High Prob,1,2,1,0.4207988,1,0.2,Correct,819,1,0.553885676,-0.865600469,2.376432632,0
786,1005,Baseline,7,100,High Prob,2,1,4,0.2969191,4,0.25,Correct,820,1,0.553885676,-1.214295568,3.367920757,0
787,1005,Baseline,7,101,High Prob,1,4,3,0.3222803,3,0.25,Correct,821,1,0.553885676,-1.132333615,3.102889007,0
788,1005,Baseline,7,102,Low Prob,4,3,1,0.4543,1,0.35,Correct,822,1,0.581374264,-0.788997506,2.201188642,0
789,1005,Baseline,7,103,High Prob,3,1,2,0.356992,2,0.35,Correct,823,1,0.553885676,-1.030041906,2.80118322,0
790,1005,Baseline,7,104,High Prob,1,2,1,0.4136797,1,0.2,Correct,824,1,0.553885676,-0.882663276,2.417329156,0
791,1005,Baseline,7,105,High Prob,2,1,4,0.3823967,4,0.35,Correct,825,1,0.553885676,-0.961296728,2.615085329,0
792,1005,Baseline,7,106,High Prob,1,4,3,0.3158011,3,0.45,Correct,826,1,0.553885676,-1.152642694,3.166550085,0
793,1005,Baseline,7,107,High Prob,4,3,2,0.3478518,2,0.45,Correct,827,1,0.553885676,-1.055978752,2.874787481,0
794,1005,Baseline,7,108,High Prob,3,2,4,0.4092428,4,0.5,Correct,828,1,0.553885676,-0.893446656,2.443537186,0
795,1005,Baseline,7,109,High Prob,2,4,1,0.3079722,1,0.5,Correct,829,1,0.553885676,-1.17774576,3.247046324,0
796,1005,Baseline,7,110,High Prob,4,1,3,0.2926824,3,0.45,Correct,830,1,0.553885676,-1.228667217,3.416672817,0
797,1005,Baseline,7,111,High Prob,1,3,4,0.3020521,4,0.25,Correct,831,1,0.553885676,-1.19715576,3.31068713,0
798,1005,Baseline,7,112,High Prob,3,4,2,0.5287193,2,0.4,Correct,832,1,0.553885676,-0.637297612,1.89136277,0
799,1005,Baseline,7,113,Low Prob,4,2,1,0.2588524,1,0.6,Correct,833,1,0.581374264,-1.351497264,3.863205441,0
800,1005,Baseline,7,114,High Prob,2,1,4,0.4295056,4,0.25,Correct,834,1,0.553885676,-0.845120499,2.328258351,0
801,1005,Baseline,7,115,High Prob,1,4,3,0.335548,3,0.3,Correct,835,1,0.553885676,-1.091990263,2.980199554,0
802,1005,Baseline,7,116,High Prob,4,3,2,0.2870197,2,0.45,Correct,836,1,0.553885676,-1.248204424,3.484081406,0
803,1005,Baseline,7,117,High Prob,3,2,4,0.3063584,4,0.4,Correct,837,1,0.553885676,-1.182999621,3.264150746,0
804,1005,Baseline,7,118,High Prob,2,4,1,0.2910889,1,0.45,Correct,838,1,0.553885676,-1.23412656,3.435376615,0
805,1005,Baseline,7,119,High Prob,4,1,3,0.3324384,3,0.25,Correct,839,1,0.553885676,-1.101300699,3.008076083,0
806,1005,Baseline,7,120,High Prob,1,3,4,0.3677969,4,0.35,Correct,840,1,0.553885676,-1.000224395,2.718891867,0
807,1005,Baseline,8,1,High Prob,2,3,1,0.2826303,1,0.45,Correct,841,1,0.553885676,-1.263615596,3.538191057,0
808,1005,Baseline,8,2,High Prob,3,1,2,0.3479781,2,0.45,Correct,842,1,0.553885676,-1.055615732,2.873744066,0
809,1005,Baseline,8,3,Low Prob,1,2,4,0.3213119,4,0.3,Correct,843,1,0.581374264,-1.135342977,3.112240785,0
810,1005,Baseline,8,4,High Prob,2,4,1,0.4093845,1,0.25,Correct,844,1,0.553885676,-0.893100467,2.442691406,0
811,1005,Baseline,8,5,Low Prob,4,1,2,0.4181206,2,0.55,Correct,845,1,0.581374264,-0.871985371,2.391654465,0
812,1005,Baseline,8,6,Low Prob,1,2,4,0.2962031,4,0.6,Correct,846,1,0.581374264,-1.216709911,3.376061898,0
813,1005,Baseline,8,7,High Prob,2,4,1,0.3015594,1,0.35,Correct,847,1,0.553885676,-1.198788267,3.316096265,0
814,1005,Baseline,8,8,High Prob,4,1,3,0.2982837,3,0.55,Correct,848,1,0.553885676,-1.209710232,3.352513061,0
815,1005,Baseline,8,9,High Prob,1,3,4,0.3589864,4,0.55,Correct,849,1,0.553885676,-1.024470774,2.785620848,0
816,1005,Baseline,8,10,High Prob,3,4,2,0.3216933,2,0.55,Correct,850,1,0.553885676,-1.134156672,3.108550909,0
817,1005,Baseline,8,11,High Prob,4,2,3,0.3037887,4,0.5,Wrong,851,0,0.461059365,-1.191422885,3.291761675,1
818,1005,Baseline,8,12,High Prob,2,3,1,0.2664663,1,0.6,Correct,852,1,0.553885676,-1.322507497,3.752819775,0
819,1005,Baseline,8,13,Low Prob,3,1,4,0.302509,3,0.4,Wrong,853,0,0.495194896,-1.19564425,3.305686773,1
820,1005,Baseline,8,14,High Prob,1,4,3,0.4793061,3,0.45,Correct,854,1,0.553885676,-0.735415846,2.086349412,0
821,1005,Baseline,8,15,Low Prob,4,3,1,0.2913197,1,0.6,Correct,855,1,0.581374264,-1.233333989,3.432654915,0
822,1005,Baseline,8,16,High Prob,3,1,2,0.3987564,2,0.6,Correct,856,1,0.553885676,-0.919404575,2.50779674,0
823,1005,Baseline,8,17,Low Prob,1,2,4,0.3574559,4,0.2,Correct,857,1,0.581374264,-1.028743281,2.797547893,0
824,1005,Baseline,8,18,High Prob,2,4,1,0.4221571,1,0.4,Correct,858,1,0.553885676,-0.862377759,2.368786407,0
825,1005,Baseline,8,19,High Prob,4,1,3,0.360208,3,0.3,Correct,859,1,0.553885676,-1.021073637,2.776173766,0
826,1005,Baseline,8,20,High Prob,1,3,4,0.3489096,4,0.3,Correct,860,1,0.553885676,-1.052942416,2.866071899,0
827,1005,Baseline,8,21,High Prob,3,4,2,0.327658,2,0.55,Correct,861,1,0.553885676,-1.115784897,3.051962717,0
828,1005,Baseline,8,22,High Prob,4,2,3,0.3916894,3,0.45,Correct,862,1,0.553885676,-0.9372861,2.553043304,0
829,1005,Baseline,8,23,High Prob,2,3,1,0.257079,1,0.55,Correct,863,1,0.553885676,-1.358371848,3.88985487,0
830,1005,Baseline,8,24,High Prob,3,1,2,0.4057974,2,0.4,Correct,864,1,0.553885676,-0.901901259,2.464283901,0
831,1005,Baseline,8,25,High Prob,1,2,1,0.3805377,1,0.6,Correct,865,1,0.553885676,-0.966170026,2.627860525,0
832,1005,Baseline,8,26,High Prob,2,1,4,0.2985865,4,0.45,Correct,866,1,0.553885676,-1.208695606,3.349113239,0
833,1005,Baseline,8,27,High Prob,1,4,3,0.285316,3,0.4,Correct,867,1,0.553885676,-1.254157941,3.504885811,0
834,1005,Baseline,8,28,High Prob,4,3,2,0.29869,2,0.55,Correct,868,1,0.553885676,-1.208349033,3.347952727,0
835,1005,Baseline,8,29,High Prob,3,2,4,0.3334037,4,0.4,Correct,869,1,0.553885676,-1.098401211,2.999366834,0
836,1005,Baseline,8,30,High Prob,2,4,1,0.2587774,1,0.3,Correct,870,1,0.553885676,-1.351787046,3.864325092,0
837,1005,Baseline,8,31,High Prob,4,1,3,0.2875082,3,0.6,Correct,871,1,0.553885676,-1.246503897,3.478161666,0
838,1005,Baseline,8,32,High Prob,1,3,4,0.3268736,4,0.3,Correct,872,1,0.553885676,-1.118181727,3.059286525,0
839,1005,Baseline,8,33,High Prob,3,4,2,0.3028796,2,0.25,Correct,873,1,0.553885676,-1.194419912,3.301641973,0
840,1005,Baseline,8,34,Low Prob,4,2,1,0.4236142,1,0.25,Correct,874,1,0.581374264,-0.858932144,2.360638524,0
841,1005,Baseline,8,35,High Prob,2,1,4,0.3476814,4,0.25,Correct,875,1,0.553885676,-1.056468736,2.876196426,0
842,1005,Baseline,8,36,High Prob,1,4,3,0.4070475,3,0.55,Correct,876,1,0.553885676,-0.898825393,2.45671574,0
843,1005,Baseline,8,37,High Prob,4,3,2,0.2797617,2,0.35,Correct,877,1,0.553885676,-1.27381711,3.574470701,0
844,1005,Baseline,8,38,High Prob,3,2,4,0.34579,4,0.45,Correct,878,1,0.553885676,-1.061923625,2.891928627,0
845,1005,Baseline,8,39,High Prob,2,4,1,0.289192,1,0.25,Correct,879,1,0.553885676,-1.240664452,3.457910316,0
846,1005,Baseline,8,40,High Prob,4,1,3,0.2325749,3,0.3,Correct,880,1,0.553885676,-1.458542955,4.299690121,0
847,1005,Baseline,8,41,High Prob,1,3,4,0.3059181,4,0.3,Correct,881,1,0.553885676,-1.18443786,3.268848754,0
848,1005,Baseline,8,42,High Prob,3,4,2,0.2786129,2,0.35,Correct,882,1,0.553885676,-1.277931916,3.589209258,0
849,1005,Baseline,8,43,High Prob,4,2,3,0.3186631,4,0.3,Wrong,883,0,0.461059365,-1.143620847,3.138110437,1
850,1005,Baseline,8,44,High Prob,2,3,1,0.3667895,1,0.45,Correct,884,1,0.553885676,-1.002967165,2.726359397,0
851,1005,Baseline,8,45,High Prob,3,1,2,0.4467794,2,0.4,Correct,885,1,0.553885676,-0.805690318,2.238241065,0
852,1005,Baseline,8,46,High Prob,1,2,1,0.4301587,1,0.35,Correct,886,1,0.553885676,-0.843601069,2.32472341,0
853,1005,Baseline,8,47,High Prob,2,1,4,0.3402341,4,0.6,Correct,887,1,0.553885676,-1.078121369,2.939152777,0
854,1005,Baseline,8,48,High Prob,1,4,3,0.2616355,3,0.4,Correct,888,1,0.553885676,-1.340802965,3.822111296,0
855,1005,Baseline,8,49,Low Prob,4,3,1,0.4183614,1,0.6,Correct,889,1,0.581374264,-0.871409627,2.390277879,0
856,1005,Baseline,8,50,High Prob,3,1,2,0.2824283,2,0.55,Correct,890,1,0.553885676,-1.264330566,3.540721663,0
857,1005,Baseline,8,51,High Prob,1,2,1,0.3918295,1,0.55,Correct,891,1,0.553885676,-0.936928483,2.552130455,0
858,1005,Baseline,8,52,High Prob,2,1,4,0.3152083,4,0.3,Correct,892,1,0.553885676,-1.154521589,3.172505293,0
859,1005,Baseline,8,53,High Prob,1,4,3,0.3572301,3,0.2,Correct,893,1,0.553885676,-1.029375167,2.799316183,0
860,1005,Baseline,8,54,High Prob,4,3,2,0.3818695,2,0.2,Correct,894,1,0.553885676,-0.962676352,2.618695654,0
861,1005,Baseline,8,55,High Prob,3,2,4,0.3253232,4,0.2,Correct,895,1,0.553885676,-1.122936129,3.073866235,0
862,1005,Baseline,8,56,Low Prob,2,4,3,0.4152971,4,0.2,Wrong,896,0,0.495194896,-0.878761111,2.407914719,1
863,1005,Baseline,8,57,High Prob,4,3,2,0.4893851,2,0.5,Correct,897,1,0.553885676,-0.714605574,2.043380561,0
864,1005,Baseline,8,58,High Prob,3,2,4,0.3567745,4,0.4,Correct,898,1,0.553885676,-1.030651349,2.802890902,0
865,1005,Baseline,8,59,High Prob,2,4,1,0.2914863,1,0.45,Correct,899,1,0.553885676,-1.232762273,3.430692969,0
866,1005,Baseline,8,60,High Prob,4,1,3,0.3908757,3,0.4,Correct,900,1,0.553885676,-0.939365672,2.558358066,0
867,1005,Baseline,8,61,High Prob,1,3,4,0.36026,4,0.35,Correct,901,1,0.553885676,-1.020929286,2.775773053,0
868,1005,Baseline,8,62,High Prob,3,4,2,0.3169746,2,0.3,Correct,902,1,0.553885676,-1.148933634,3.154826917,0
869,1005,Baseline,8,64,High Prob,2,3,1,0.2857372,1,0.3,Correct,904,1,0.553885676,-1.252682772,3.499719323,0
870,1005,Baseline,8,65,High Prob,3,1,2,0.415118,2,0.45,Correct,905,1,0.553885676,-0.879192462,2.408953599,0
871,1005,Baseline,8,66,High Prob,1,2,1,0.4071748,1,0.55,Correct,906,1,0.553885676,-0.898512702,2.455947667,0
872,1005,Baseline,8,67,High Prob,2,1,4,0.3258978,4,0.4,Correct,907,1,0.553885676,-1.121171444,3.068446611,0
873,1005,Baseline,8,68,High Prob,1,4,3,0.291962,3,0.5,Correct,908,1,0.553885676,-1.231131622,3.425103267,0
874,1005,Baseline,8,69,High Prob,4,3,2,0.3473603,2,0.3,Correct,909,1,0.553885676,-1.057392709,2.878855183,0
875,1005,Baseline,8,70,High Prob,3,2,4,0.3507218,4,0.35,Correct,910,1,0.553885676,-1.047761962,2.851262739,0
876,1005,Baseline,8,71,High Prob,2,4,1,0.3214481,1,0.35,Correct,911,1,0.553885676,-1.134919179,3.110922105,0
877,1005,Baseline,8,72,High Prob,4,1,3,0.3534894,3,0.45,Correct,912,1,0.553885676,-1.03990178,2.828939142,0
878,1005,Baseline,8,73,High Prob,1,3,4,0.3222083,4,0.4,Correct,913,1,0.553885676,-1.132557048,3.103582372,0
879,1005,Baseline,8,74,High Prob,3,4,2,0.2721952,2,0.5,Correct,914,1,0.553885676,-1.301235823,3.673834072,0
880,1005,Baseline,8,75,High Prob,4,2,3,0.5162898,3,0.4,Correct,915,1,0.553885676,-0.661087043,1.936896681,0
881,1005,Baseline,8,76,High Prob,2,3,1,0.3143844,1,0.5,Correct,916,1,0.553885676,-1.157138838,3.180819405,0
882,1005,Baseline,8,77,High Prob,3,1,2,0.3930779,2,0.5,Correct,917,1,0.553885676,-0.933747468,2.544024988,0
883,1005,Baseline,8,78,High Prob,1,2,1,0.4124548,1,0.3,Correct,918,1,0.553885676,-0.885628655,2.424508092,0
884,1005,Baseline,8,79,High Prob,2,1,4,0.393182,4,0.45,Correct,919,1,0.553885676,-0.93348267,2.543351425,0
885,1005,Baseline,8,80,High Prob,1,4,3,0.2905755,3,0.55,Correct,920,1,0.553885676,-1.23589184,3.441446371,0
886,1005,Baseline,8,82,High Prob,3,2,4,0.3766546,4,0.25,Correct,922,1,0.553885676,-0.976426692,2.654952309,0
887,1005,Baseline,8,83,High Prob,2,4,1,0.2987141,1,0.35,Correct,923,1,0.553885676,-1.20826835,3.347682617,0
888,1005,Baseline,8,84,High Prob,4,1,3,0.3034763,3,0.35,Correct,924,1,0.553885676,-1.19245176,3.295150231,0
889,1005,Baseline,8,85,Low Prob,1,3,2,0.2701488,2,0.5,Correct,925,1,0.581374264,-1.308782361,3.701663676,0
890,1005,Baseline,8,86,High Prob,3,2,4,0.2801852,4,0.25,Correct,926,1,0.553885676,-1.272304466,3.569067888,0
891,1005,Baseline,8,87,High Prob,2,4,1,0.2582308,1,0.25,Correct,927,1,0.553885676,-1.35390152,3.872504752,0
892,1005,Baseline,8,88,High Prob,4,1,3,0.2889459,3,0.55,Correct,928,1,0.553885676,-1.241515806,3.460855475,0
893,1005,Baseline,8,89,High Prob,1,3,4,0.3923071,4,0.3,Correct,929,1,0.553885676,-0.935710328,2.549023456,0
894,1005,Baseline,8,90,High Prob,3,4,2,0.3356864,2,0.2,Correct,930,1,0.553885676,-1.091577888,2.978970849,0
895,1005,Baseline,8,91,Low Prob,4,2,1,0.4470775,1,0.45,Correct,931,1,0.581374264,-0.805023321,2.236748662,0
896,1005,Baseline,8,92,High Prob,2,1,4,0.2884649,4,0.3,Correct,932,1,0.553885676,-1.243181864,3.466626269,0
897,1005,Baseline,8,93,High Prob,1,4,3,0.2958145,3,0.3,Correct,933,1,0.553885676,-1.21802271,3.380496899,0
898,1005,Baseline,8,94,High Prob,4,3,2,0.2931825,2,0.55,Correct,934,1,0.553885676,-1.226959997,3.410844781,0
899,1005,Baseline,8,95,High Prob,3,2,4,0.3485717,4,0.3,Correct,935,1,0.553885676,-1.053911331,2.868850225,0
900,1005,Baseline,8,96,High Prob,2,4,1,0.3353006,1,0.35,Correct,936,1,0.553885676,-1.092727836,2.982398481,0
901,1005,Baseline,8,97,High Prob,4,1,3,0.3066324,3,0.35,Correct,937,1,0.553885676,-1.182105643,3.261233973,0
902,1005,Baseline,8,98,High Prob,1,3,4,0.3973425,4,0.2,Correct,938,1,0.553885676,-0.92295665,2.516720462,0
903,1005,Baseline,8,99,High Prob,3,4,2,0.2847373,2,0.4,Correct,939,1,0.553885676,-1.256188278,3.51200914,0
904,1005,Baseline,8,100,High Prob,4,2,3,0.4540969,3,0.25,Correct,940,1,0.553885676,-0.789444668,2.202173149,0
905,1005,Baseline,8,101,High Prob,2,3,1,0.2828371,1,0.6,Correct,941,1,0.553885676,-1.262884165,3.535604063,0
906,1005,Baseline,8,102,High Prob,3,1,2,0.5202281,2,0.55,Correct,942,1,0.553885676,-0.65348791,1.922233728,0
907,1005,Baseline,8,103,High Prob,1,2,1,0.5202981,1,0.25,Correct,943,1,0.553885676,-0.653353362,1.921975114,0
908,1005,Baseline,8,104,High Prob,2,1,4,0.3544246,4,0.4,Correct,944,1,0.553885676,-1.03725965,2.821474582,0
909,1005,Baseline,8,105,High Prob,1,4,3,0.3691043,3,0.45,Correct,945,1,0.553885676,-0.996676019,2.709261312,0
910,1005,Baseline,8,106,High Prob,4,3,2,0.4071258,2,0.25,Correct,946,1,0.553885676,-0.89863305,2.456243255,0
911,1005,Baseline,8,107,Low Prob,3,2,3,0.5238373,3,0.25,Correct,947,1,0.581374264,-0.646574139,1.908989681,0
912,1005,Baseline,8,108,High Prob,2,3,1,0.3299019,1,0.3,Correct,948,1,0.553885676,-1.108959941,3.031204125,0
913,1005,Baseline,8,109,Low Prob,3,1,4,0.2799605,4,0.5,Correct,949,1,0.581374264,-1.273106757,3.571932469,0
914,1005,Baseline,8,110,High Prob,1,4,3,0.3100003,3,0.55,Correct,950,1,0.553885676,-1.171182014,3.22580333,0
915,1005,Baseline,8,111,High Prob,4,3,2,0.3006918,2,0.3,Correct,951,1,0.553885676,-1.201669459,3.325664351,0
916,1005,Baseline,8,112,High Prob,3,2,4,0.3734118,4,0.25,Correct,952,1,0.553885676,-0.985073447,2.678008569,0
917,1005,Baseline,8,113,High Prob,2,4,1,0.3374745,1,0.5,Correct,953,1,0.553885676,-1.086265327,2.963186848,0
918,1005,Baseline,8,114,High Prob,4,1,3,0.2928183,3,0.35,Correct,954,1,0.553885676,-1.228202999,3.415087104,0
