"","SID","Session","Block","Trial","Sequence","Stimt-2","Stimt-1","Stimt","RT","Response","Delay","post_reversal","Result","Trial_Number","Correct","log_RT","inverse_RT","post_error"
"1",1033,1,1,1,"High Prob","2","3","1",0.3573396,1,0.35,"0","Correct",1,1,-1.02906868885984,2.79845838524474,NA
"2",1033,1,1,2,"Low Prob","3","1","4",0.4620412,4,0.2,"0","Correct",2,1,-0.772101214387297,2.16430915684575,"0"
"3",1033,1,1,3,"High Prob","1","4","3",0.3786989,3,0.4,"0","Correct",3,1,-0.971013848752491,2.64062029226914,"0"
"4",1033,1,1,4,"Low Prob","4","3","1",0.2267684,1,0.6,"0","Correct",4,1,-1.48382604664184,4.40978549039461,"0"
"5",1033,1,1,5,"High Prob","3","1","2",0.3248532,2,0.5,"0","Correct",5,1,-1.12438189100379,3.0783135274641,"0"
"6",1033,1,1,6,"High Prob","1","2","1",0.2788667,1,0.4,"0","Correct",6,1,-1.27702138911072,3.58594267440322,"0"
"7",1033,1,1,7,"High Prob","2","1","4",0.2828955,4,0.4,"0","Correct",7,1,-1.26267770748193,3.53487418499057,"0"
"8",1033,1,1,8,"High Prob","1","4","3",0.2363023,3,0.45,"0","Correct",8,1,-1.44264336144689,4.23186740035962,"0"
"9",1033,1,1,9,"Low Prob","4","3","1",0.4256397,1,0.2,"0","Correct",9,1,-0.85416206522983,2.34940490748396,"0"
"10",1033,1,1,10,"Low Prob","3","1","4",0.2937008,4,0.45,"0","Correct",10,1,-1.22519371691338,3.40482559121392,"0"
"11",1033,1,1,11,"Low Prob","1","4","2",0.4791527,2,0.25,"0","Correct",11,1,-0.735735943229634,2.087017353758,"0"
"12",1033,1,1,12,"High Prob","4","2","3",0.4251698,3,0.45,"0","Correct",12,1,-0.855266660436579,2.35200148270173,"0"
"13",1033,1,1,13,"Low Prob","2","3","4",0.2872359,4,0.6,"0","Correct",13,1,-1.24745144961992,3.48145896804682,"0"
"14",1033,1,1,14,"High Prob","3","4","2",0.2686174,2,0.55,"0","Correct",14,1,-1.31446721664864,3.7227670284948,"0"
"15",1033,1,1,15,"High Prob","4","2","3",0.4026556,3,0.35,"0","Correct",15,1,-0.909673672976872,2.48351196407054,"0"
"16",1033,1,1,16,"High Prob","2","3","1",0.4993723,1,0.35,"0","Correct",16,1,-0.694403369234663,2.00251395602039,"0"
"17",1033,1,1,17,"High Prob","3","1","2",0.4000604,2,0.35,"0","Correct",17,1,-0.916139743273508,2.49962255699389,"0"
"18",1033,1,1,18,"High Prob","1","2","1",0.422778,1,0.2,"0","Correct",18,1,-0.86090806039853,2.36530756094215,"0"
"19",1033,1,1,19,"High Prob","2","1","4",0.2748451,4,0.45,"0","Correct",19,1,-1.29154761274052,3.63841305520819,"0"
"20",1033,1,1,20,"High Prob","1","4","3",0.3308916,3,0.3,"0","Correct",20,1,-1.10596444968957,3.02213776354552,"0"
"21",1033,1,1,21,"High Prob","4","3","2",0.486953,2,0.55,"0","Correct",21,1,-0.71958766979711,2.05358628040078,"0"
"22",1033,1,1,22,"High Prob","3","2","4",0.4223346,4,0.3,"0","Correct",22,1,-0.861957388122871,2.36779084640472,"0"
"23",1033,1,1,23,"Low Prob","2","4","3",0.3903752,3,0.35,"0","Correct",23,1,-0.940646951051136,2.56163813684886,"0"
"24",1033,1,1,24,"High Prob","4","3","2",0.4677687,2,0.45,"0","Correct",24,1,-0.759781336006004,2.13780870759416,"0"
"25",1033,1,1,25,"High Prob","3","2","4",0.3838652,4,0.4,"0","Correct",25,1,-0.957463829690626,2.60508115869842,"0"
"26",1033,1,1,26,"High Prob","2","4","1",0.4511706,1,0.3,"0","Correct",26,1,-0.795909740495733,2.21645648009866,"0"
"27",1033,1,1,27,"High Prob","4","1","3",0.3279014,3,0.6,"0","Correct",27,1,-1.11504232554626,3.04969725655334,"0"
"28",1033,1,1,28,"High Prob","1","3","4",0.2919503,4,0.55,"0","Correct",28,1,-1.2311716966799,3.42524052895304,"0"
"29",1033,1,1,29,"High Prob","3","4","2",0.3833706,2,0.6,"0","Correct",29,1,-0.958753133626951,2.60844206624086,"0"
"30",1033,1,1,30,"High Prob","4","2","3",0.4927752,3,0.45,"0","Correct",30,1,-0.707702192704481,2.02932290423706,"0"
"31",1033,1,1,31,"High Prob","2","3","1",0.3741656,1,0.45,"0","Correct",31,1,-0.983056798817411,2.67261340967743,"0"
"32",1033,1,1,32,"High Prob","3","1","2",0.4602566,2,0.25,"0","Correct",32,1,-0.775971118939176,2.1727010541511,"0"
"33",1033,1,1,33,"High Prob","1","2","1",0.3769346,2,0.4,"0","Wrong",33,0,-0.975683581383681,2.65298011909758,"0"
"34",1033,1,1,34,"High Prob","2","1","4",0.5749672,4,0.25,"0","Correct",34,1,-0.553442283290088,1.73922964649114,"1"
"35",1033,1,1,35,"High Prob","1","4","3",0.3730292,3,0.45,"0","Correct",35,1,-0.986098578220063,2.6807552867175,"0"
"36",1033,1,1,36,"High Prob","4","3","2",0.5410765,2,0.2,"0","Correct",36,1,-0.614194605326458,1.8481674957238,"0"
"37",1033,1,1,37,"High Prob","3","2","4",0.4304512,4,0.2,"0","Correct",37,1,-0.842921318101829,2.32314371524577,"0"
"38",1033,1,1,38,"High Prob","2","4","1",0.5185629,1,0.55,"0","Correct",38,1,-0.656693947194787,1.92840637076042,"0"
"39",1033,1,1,39,"High Prob","4","1","3",0.3205656,3,0.4,"0","Correct",39,1,-1.13766834337834,3.1194863079507,"0"
"40",1033,1,1,40,"High Prob","1","3","4",0.3546224,4,0.4,"0","Correct",40,1,-1.0367017175684,2.81990082972762,"0"
"41",1033,1,1,41,"High Prob","3","4","2",0.4753509,2,0.2,"0","Correct",41,1,-0.743702010837142,2.10370907049929,"0"
"42",1033,1,1,42,"High Prob","4","2","3",0.4693764,3,0.45,"0","Correct",42,1,-0.756350273778439,2.13048632185172,"0"
"43",1033,1,1,43,"High Prob","2","3","1",0.3013955,1,0.5,"0","Correct",43,1,-1.19933192322635,3.3178995704979,"0"
"44",1033,1,1,44,"High Prob","3","1","2",0.4121155,2,0.5,"0","Correct",44,1,-0.886451629114646,2.42650422029747,"0"
"45",1033,1,1,45,"High Prob","1","2","1",0.3988465,1,0.3,"0","Correct",45,1,-0.919178647892284,2.50723022516181,"0"
"46",1033,1,1,46,"High Prob","2","1","4",0.2815568,4,0.5,"0","Correct",46,1,-1.26742107555754,3.55168122382411,"0"
"47",1033,1,1,47,"Low Prob","1","4","2",0.3989193,2,0.35,"0","Correct",47,1,-0.918996138187801,2.50677267306947,"0"
"48",1033,1,1,48,"High Prob","4","2","3",0.4516308,3,0.25,"0","Correct",48,1,-0.79489024708365,2.21419796878335,"0"
"49",1033,1,1,49,"High Prob","2","3","1",0.5023433,1,0.25,"0","Correct",49,1,-0.688471528477378,1.99067052352445,"0"
"50",1033,1,1,50,"High Prob","3","1","2",0.4250901,2,0.6,"0","Correct",50,1,-0.855454132526545,2.35244245866935,"0"
"51",1033,1,1,51,"High Prob","1","2","1",0.4311929,1,0.2,"0","Correct",51,1,-0.84119972520009,2.31914764830311,"0"
"52",1033,1,1,52,"High Prob","2","1","4",0.4031737,4,0.25,"0","Correct",52,1,-0.908387792527031,2.48032051693848,"0"
"53",1033,1,1,53,"High Prob","1","4","3",0.4019352,3,0.4,"0","Correct",53,1,-0.911464397386121,2.48796323387452,"0"
"54",1033,1,1,54,"High Prob","4","3","2",0.4506586,2,0.35,"0","Correct",54,1,-0.797045210615818,2.21897462957547,"0"
"55",1033,1,1,55,"Low Prob","3","2","3",0.4193891,3,0.3,"0","Correct",55,1,-0.868956150360873,2.38442057745421,"0"
"56",1033,1,1,56,"High Prob","2","3","1",0.4194522,1,0.35,"0","Correct",56,1,-0.868805704739945,2.38406187880288,"0"
"57",1033,1,1,57,"High Prob","3","1","2",0.4094672,2,0.6,"0","Correct",57,1,-0.892898476577101,2.4421980564011,"0"
"58",1033,1,1,58,"High Prob","1","2","1",0.2981851,1,0.35,"0","Correct",58,1,-1.21004084436532,3.35362162629856,"0"
"59",1033,1,1,59,"Low Prob","2","1","3",0.5689297,3,0.5,"0","Correct",59,1,-0.56399840257662,1.75768640659821,"0"
"60",1033,1,1,60,"High Prob","1","3","4",NA,4,0.5,"0","Correct",60,1,NA,NA,"0"
"61",1033,1,1,61,"High Prob","3","4","2",0.5377238,2,0.2,"0","Correct",61,1,-0.620410233546102,1.85969079293124,"0"
"62",1033,1,1,62,"High Prob","4","2","3",0.5630834,3,0.4,"0","Correct",62,1,-0.574327526822232,1.77593585603838,"0"
"63",1033,1,1,63,"High Prob","2","3","1",0.3038551,1,0.3,"0","Correct",63,1,-1.19120433594397,3.29104234222167,"0"
"64",1033,1,1,64,"High Prob","3","1","2",0.402528,2,0.4,"0","Correct",64,1,-0.909990619325675,2.48429922887352,"0"
"65",1033,1,1,65,"Low Prob","1","2","4",0.3032354,4,0.45,"0","Correct",65,1,-1.1932458774118,3.29776800465909,"0"
"66",1033,1,1,66,"High Prob","2","4","1",0.2780037,1,0.3,"0","Correct",66,1,-1.28012085602755,3.59707442742669,"0"
"67",1033,1,1,67,"High Prob","4","1","3",0.2779988,3,0.5,"0","Correct",67,1,-1.28013848184758,3.59713782937193,"0"
"68",1033,1,1,68,"High Prob","1","3","4",0.3680649,4,0.25,"0","Correct",68,1,-0.999495997666921,2.71691215326428,"0"
"69",1033,1,1,69,"High Prob","3","4","2",0.4220676,2,0.25,"0","Correct",69,1,-0.862589788201645,2.36928871109746,"0"
"70",1033,1,1,70,"High Prob","4","2","3",0.5561666,3,0.2,"0","Correct",70,1,-0.58668738932697,1.79802239113244,"0"
"71",1033,1,1,71,"High Prob","2","3","1",0.406851,1,0.35,"0","Correct",71,1,-0.899308253934171,2.4579022787212,"0"
"72",1033,1,1,72,"High Prob","3","1","2",0.3195707,2,0.55,"0","Correct",72,1,-1.14077674638899,3.12919801471161,"0"
"73",1033,1,1,73,"High Prob","1","2","1",0.3516132,1,0.45,"0","Correct",73,1,-1.04522357121371,2.84403429677839,"0"
"74",1033,1,1,74,"High Prob","2","1","4",0.3763287,4,0.2,"0","Correct",74,1,-0.977292315356712,2.65725149317605,"0"
"75",1033,1,1,75,"High Prob","1","4","3",0.3043666,3,0.6,"0","Correct",75,1,-1.18952238306204,3.28551161658342,"0"
"76",1033,1,1,76,"High Prob","4","3","2",0.4571137,2,0.25,"0","Correct",76,1,-0.782823122533743,2.1876395303838,"0"
"77",1033,1,1,77,"High Prob","3","2","4",0.2877684,4,0.55,"0","Correct",77,1,-1.24559928902832,3.4750167148304,"0"
"78",1033,1,1,78,"High Prob","2","4","1",0.6031417,1,0.2,"0","Correct",78,1,-0.505603118153052,1.65798517993367,"0"
"79",1033,1,1,79,"High Prob","4","1","3",0.4058613,3,0.3,"0","Correct",79,1,-0.901743803363492,2.46389591715199,"0"
"80",1033,1,1,80,"High Prob","1","3","4",0.3606331,4,0.3,"0","Correct",80,1,-1.01989418096682,2.77290132270166,"0"
"81",1033,1,1,81,"High Prob","3","4","2",0.4893511,2,0.4,"0","Correct",81,1,-0.714675051232994,2.04352253422951,"0"
"82",1033,1,1,82,"High Prob","4","2","3",0.3807561,3,0.6,"0","Correct",82,1,-0.965596266324039,2.62635319565465,"0"
"83",1033,1,1,83,"High Prob","2","3","1",0.5287867,1,0.3,"0","Correct",83,1,-0.63717014204689,1.89112169424836,"0"
"84",1033,1,1,84,"Low Prob","3","1","4",0.3268462,4,0.5,"0","Correct",84,1,-1.11826555511918,3.05954298994451,"0"
"85",1033,1,1,85,"Low Prob","1","4","2",0.4009076,2,0.6,"0","Correct",85,1,-0.914024302167392,2.49434034176454,"0"
"86",1033,1,1,86,"High Prob","4","2","3",0.4996308,3,0.3,"0","Correct",86,1,-0.6938858533115,2.00147789127492,"0"
"87",1033,1,1,87,"High Prob","2","3","1",0.3483316,1,0.45,"0","Correct",87,1,-1.05460037934027,2.87082768258751,"0"
"88",1033,1,1,88,"High Prob","3","1","2",0.445122,2,0.4,"0","Correct",88,1,-0.809406877086772,2.24657509626574,"0"
"89",1033,1,1,89,"High Prob","1","2","1",0.4404575,1,0.45,"0","Correct",89,1,-0.819941319531803,2.27036660744794,"0"
"90",1033,1,1,90,"High Prob","2","1","4",0.4598326,4,0.25,"0","Correct",90,1,-0.776892768774895,2.17470444679216,"0"
"91",1033,1,1,91,"High Prob","1","4","3",0.422636,3,0.45,"0","Correct",91,1,-0.861243990490379,2.36610227240462,"0"
"92",1033,1,1,92,"High Prob","4","3","2",0.4026282,2,0.45,"0","Correct",92,1,-0.909741723520073,2.48368097415929,"0"
"93",1033,1,1,93,"High Prob","3","2","4",0.4133371,4,0.5,"0","Correct",93,1,-0.883491796189461,2.41933279156408,"0"
"94",1033,1,1,94,"High Prob","2","4","1",0.4000211,1,0.3,"0","Correct",94,1,-0.916237983265387,2.49986813195604,"0"
"95",1033,1,1,95,"High Prob","4","1","3",0.3807586,3,0.45,"0","Correct",95,1,-0.965589700462605,2.6263359514401,"0"
"96",1033,1,1,96,"High Prob","1","3","4",0.4408059,4,0.5,"0","Correct",96,1,-0.819150636478016,2.26857217655208,"0"
"97",1033,1,1,97,"High Prob","3","4","2",0.424208,2,0.35,"0","Correct",97,1,-0.857531378000624,2.35733413797005,"0"
"98",1033,1,1,98,"Low Prob","4","2","1",0.2542588,1,0.6,"0","Correct",98,1,-1.36940263304968,3.93300054904688,"0"
"99",1033,1,1,99,"High Prob","2","1","4",0.3809794,4,0.55,"0","Correct",99,1,-0.965009973558646,2.62481383507875,"0"
"100",1033,1,1,100,"High Prob","1","4","3",0.4009911,3,0.3,"0","Correct",100,1,-0.913816046435585,2.49382093517786,"0"
"101",1033,1,1,101,"High Prob","4","3","2",0.5837419,2,0.2,"0","Correct",101,1,-0.538296345898298,1.71308586894311,"0"
"102",1033,1,1,102,"High Prob","3","2","4",0.3831761,4,0.4,"0","Correct",102,1,-0.959260604350324,2.60976611015144,"0"
"103",1033,1,1,103,"High Prob","2","4","1",0.3045841,1,0.35,"0","Correct",103,1,-1.18880803948956,3.28316547055477,"0"
"104",1033,1,1,104,"High Prob","4","1","3",0.405225,3,0.35,"0","Correct",104,1,-0.903312810583898,2.46776482201246,"0"
"105",1033,1,1,105,"High Prob","1","3","4",0.3659746,4,0.55,"0","Correct",105,1,-1.00519134689609,2.73243006481871,"0"
"106",1033,1,1,106,"High Prob","3","4","2",0.4800063,2,0.35,"0","Correct",106,1,-0.733956050166332,2.08330598994222,"0"
"107",1033,1,1,107,"High Prob","4","2","3",0.3940611,3,0.45,"0","Correct",107,1,-0.931249305565133,2.53767753274809,"0"
"108",1033,1,1,108,"High Prob","2","3","1",0.5173955,1,0.5,"0","Correct",108,1,-0.658947706600848,1.93275743604264,"0"
"109",1033,1,1,109,"Low Prob","3","1","4",0.4614561,4,0.45,"0","Correct",109,1,-0.773368354157578,2.16705337734185,"0"
"110",1033,1,1,110,"High Prob","1","4","3",0.4342519,3,0.2,"0","Correct",110,1,-0.834130498510679,2.30281088004451,"0"
"111",1033,1,1,111,"High Prob","4","3","2",0.4555946,2,0.2,"0","Correct",111,1,-0.786151899981546,2.19493382932985,"0"
"112",1033,1,1,112,"High Prob","3","2","4",0.3783112,4,0.25,"0","Correct",112,1,-0.972038141648707,2.64332644658683,"0"
"113",1033,1,1,113,"High Prob","2","4","1",0.3123702,2,0.45,"0","Wrong",113,0,-1.16356625609154,3.20132970430598,"0"
"114",1033,1,1,114,"High Prob","4","1","3",0.4430806,3,0.4,"0","Correct",114,1,-0.814003584177059,2.25692571509563,"1"
"115",1033,1,1,115,"High Prob","1","3","4",0.3824056,4,0.25,"0","Correct",115,1,-0.961273453560654,2.61502446616891,"0"
"116",1033,1,1,116,"High Prob","3","4","2",0.2778014,1,0.6,"0","Wrong",116,0,-1.28084880907776,3.59969388203227,"0"
"117",1033,1,1,117,"High Prob","4","2","3",0.3758962,3,0.45,"0","Correct",117,1,-0.978442237534663,2.6603088831438,"1"
"118",1033,1,1,118,"High Prob","2","3","1",0.4459321,1,0.25,"0","Correct",118,1,-0.807588580704552,2.24249386846114,"0"
"119",1033,1,1,119,"High Prob","3","1","2",0.4373757,2,0.55,"0","Correct",119,1,-0.826962727838292,2.28636387435333,"0"
"120",1033,1,1,120,"High Prob","1","2","1",0.3187185,1,0.5,"0","Correct",120,1,-1.14344701092228,3.1375649672046,"0"
"121",1033,1,2,1,"High Prob","2","3","1",0.3456393,1,0.2,"0","Correct",121,1,-1.06235953323955,2.89318951866874,"0"
"122",1033,1,2,2,"High Prob","3","1","2",0.2809994,2,0.45,"0","Correct",122,1,-1.26940274488199,3.55872645991415,"0"
"123",1033,1,2,3,"High Prob","1","2","1",0.2490615,1,0.5,"0","Correct",123,1,-1.39005542506213,4.01507258247461,"0"
"124",1033,1,2,4,"High Prob","2","1","4",0.371755,4,0.25,"0","Correct",124,1,-0.989520243833196,2.68994364568062,"0"
"125",1033,1,2,5,"High Prob","1","4","3",0.3158369,3,0.6,"0","Correct",125,1,-1.15252933788144,3.16619115752466,"0"
"126",1033,1,2,6,"High Prob","4","3","2",0.4918807,2,0.45,"0","Correct",126,1,-0.709519071567575,2.03301328960457,"0"
"127",1033,1,2,7,"Low Prob","3","2","3",0.5252497,3,0.25,"0","Correct",127,1,-0.643881510413782,1.9038563943968,"0"
"128",1033,1,2,8,"High Prob","2","3","1",0.319331,1,0.6,"0","Correct",128,1,-1.14152709659543,3.13154689021736,"0"
"129",1033,1,2,9,"Low Prob","3","1","4",0.2873865,4,0.45,"0","Correct",129,1,-1.2469272793006,3.47963456877759,"0"
"130",1033,1,2,10,"High Prob","1","4","3",0.3947363,3,0.2,"0","Correct",130,1,-0.929537331958452,2.53333681244922,"0"
"131",1033,1,2,11,"High Prob","4","3","2",0.4981396,2,0.6,"0","Correct",131,1,-0.696874919955014,2.00746939211418,"0"
"132",1033,1,2,12,"High Prob","3","2","4",0.3668998,4,0.35,"0","Correct",132,1,-1.00266649272871,2.72553977952564,"0"
"133",1033,1,2,13,"High Prob","2","4","1",0.4489629,1,0.35,"0","Correct",133,1,-0.80081502271613,2.22735553427689,"0"
"134",1033,1,2,14,"High Prob","4","1","3",0.5235808,3,0.45,"0","Correct",134,1,-0.647063914831864,1.90992488647406,"0"
"135",1033,1,2,15,"High Prob","1","3","4",0.4156949,4,0.55,"0","Correct",135,1,-0.877803701261637,2.40561046094143,"0"
"136",1033,1,2,16,"High Prob","3","4","2",0.4177396,2,0.3,"0","Correct",136,1,-0.872897007088818,2.39383577712048,"0"
"137",1033,1,2,17,"High Prob","4","2","3",0.5058039,3,0.55,"0","Correct",137,1,-0.681606234218466,1.97705078984168,"0"
"138",1033,1,2,18,"Low Prob","2","3","4",0.3525387,4,0.5,"0","Correct",138,1,-1.04259487552195,2.83656801366772,"0"
"139",1033,1,2,19,"High Prob","3","4","2",0.5112827,2,0.45,"0","Correct",139,1,-0.67083261279034,1.9558651211942,"0"
"140",1033,1,2,20,"High Prob","4","2","3",0.4859832,3,0.5,"0","Correct",140,1,-0.721581223580361,2.05768429855188,"0"
"141",1033,1,2,21,"High Prob","2","3","1",0.5113688,1,0.45,"0","Correct",141,1,-0.670664226981091,1.95553580898952,"0"
"142",1033,1,2,22,"High Prob","3","1","2",0.482111,2,0.6,"0","Correct",142,1,-0.729580900987882,2.07421112565364,"0"
"143",1033,1,2,23,"High Prob","1","2","1",0.4315026,1,0.35,"0","Correct",143,1,-0.840481742984339,2.31748313915142,"0"
"144",1033,1,2,24,"High Prob","2","1","4",0.4568838,4,0.5,"0","Correct",144,1,-0.783326187377681,2.18874033178677,"0"
"145",1033,1,2,25,"High Prob","1","4","3",0.3256168,3,0.4,"0","Correct",145,1,-1.12203404913324,3.07109461182593,"0"
"146",1033,1,2,26,"High Prob","4","3","2",0.3836626,2,0.6,"0","Correct",146,1,-0.957991758463253,2.60645681909052,"0"
"147",1033,1,2,27,"Low Prob","3","2","3",0.4290466,3,0.45,"0","Correct",147,1,-0.846189741244732,2.33074915405459,"0"
"148",1033,1,2,28,"High Prob","2","3","1",0.3271074,1,0.5,"0","Correct",148,1,-1.11746672164264,3.05709990052197,"0"
"149",1033,1,2,29,"High Prob","3","1","2",0.4611531,2,0.3,"0","Correct",149,1,-0.774025186998381,2.16847723673548,"0"
"150",1033,1,2,30,"High Prob","1","2","1",0.4638149,1,0.25,"0","Correct",150,1,-0.768269728760389,2.15603250348361,"0"
"151",1033,1,2,31,"High Prob","2","1","4",0.498534,4,0.25,"0","Correct",151,1,-0.696083487292231,2.00588124380684,"0"
"152",1033,1,2,32,"Low Prob","1","4","2",0.3532948,2,0.3,"0","Correct",152,1,-1.04045244309501,2.83049736367476,"0"
"153",1033,1,2,33,"High Prob","4","2","3",0.3200102,3,0.45,"0","Correct",153,1,-1.13940240869636,3.12490039379995,"0"
"154",1033,1,2,34,"High Prob","2","3","1",0.3680633,1,0.45,"0","Correct",154,1,-0.999500344735814,2.71692396389425,"0"
"155",1033,1,2,35,"High Prob","3","1","2",0.3441285,2,0.6,"0","Correct",155,1,-1.06674014484824,2.90589125864321,"0"
"156",1033,1,2,36,"High Prob","1","2","1",0.4014979,1,0.2,"0","Correct",156,1,-0.912552975995051,2.49067305208819,"0"
"157",1033,1,2,37,"High Prob","2","1","4",0.4322133,4,0.4,"0","Correct",157,1,-0.838836062592449,2.31367243904803,"0"
"158",1033,1,2,38,"High Prob","1","4","3",0.4296054,3,0.4,"0","Correct",158,1,-0.844888166034079,2.32771748213593,"0"
"159",1033,1,2,39,"Low Prob","4","3","1",0.4196329,1,0.2,"0","Correct",159,1,-0.868374997526116,2.38303526725383,"0"
"160",1033,1,2,40,"High Prob","3","1","2",0.281706,2,0.6,"0","Correct",160,1,-1.26689130507211,3.54980014625177,"0"
"161",1033,1,2,41,"High Prob","1","2","1",0.3890716,1,0.2,"0","Correct",161,1,-0.943991890604308,2.57022100816405,"0"
"162",1033,1,2,42,"Low Prob","2","1","3",0.5404455,3,0.2,"0","Correct",162,1,-0.615361479549261,1.85032533345175,"0"
"163",1033,1,2,43,"High Prob","1","3","4",0.3078438,4,0.45,"0","Correct",163,1,-1.17816276750614,3.24840064994,"0"
"164",1033,1,2,44,"High Prob","3","4","2",0.3905503,2,0.4,"0","Correct",164,1,-0.940198508778641,2.56048964755628,"0"
"165",1033,1,2,45,"Low Prob","4","2","1",0.2559661,1,0.55,"0","Correct",165,1,-1.36271026514613,3.90676734145654,"0"
"166",1033,1,2,46,"High Prob","2","1","4",0.4446446,4,0.2,"0","Correct",166,1,-0.810479967593454,2.24898716862861,"0"
"167",1033,1,2,47,"Low Prob","1","4","2",0.2780358,2,0.5,"0","Correct",167,1,-1.28000539660413,3.59665913526244,"0"
"168",1033,1,2,48,"Low Prob","4","2","1",0.4340552,1,0.2,"0","Correct",168,1,-0.834583564029468,2.30385444063336,"0"
"169",1033,1,2,49,"High Prob","2","1","4",0.5014187,4,0.25,"0","Correct",169,1,-0.690313798381009,1.99434125611989,"0"
"170",1033,1,2,50,"High Prob","1","4","3",0.3641731,3,0.5,"0","Correct",170,1,-1.01012597493265,2.7459469137067,"0"
"171",1033,1,2,51,"High Prob","4","3","2",0.4328618,2,0.3,"0","Correct",171,1,-0.837336770516006,2.31020616741879,"0"
"172",1033,1,2,52,"Low Prob","3","2","3",0.4322742,3,0.35,"0","Correct",172,1,-0.838695169866757,2.31334648239474,"0"
"173",1033,1,2,53,"High Prob","2","3","1",0.4356252,1,0.25,"0","Correct",173,1,-0.830973038356981,2.29555131337673,"0"
"174",1033,1,2,54,"High Prob","3","1","2",0.4510347,2,0.35,"0","Correct",174,1,-0.796211002306161,2.21712431438202,"0"
"175",1033,1,2,55,"Low Prob","1","2","4",0.3977422,4,0.45,"0","Correct",175,1,-0.921951222264508,2.51419135309253,"0"
"176",1033,1,2,56,"High Prob","2","4","1",0.6051422,1,0.4,"0","Correct",176,1,-0.502291807246866,1.6525041552217,"0"
"177",1033,1,2,57,"High Prob","4","1","3",0.4838892,3,0.4,"0","Correct",177,1,-0.72589932409281,2.06658879760077,"0"
"178",1033,1,2,58,"Low Prob","1","3","2",0.3192626,2,0.4,"0","Correct",178,1,-1.14174131734635,3.13221780440302,"0"
"179",1033,1,2,59,"High Prob","3","2","4",0.4572837,4,0.2,"0","Correct",179,1,-0.782451292950766,2.18682625249927,"0"
"180",1033,1,2,60,"Low Prob","2","4","3",0.4940294,3,0.6,"0","Correct",180,1,-0.705160249395072,2.02417103111677,"0"
"181",1033,1,2,61,"High Prob","4","3","2",0.3974085,2,0.3,"0","Correct",181,1,-0.922790560064476,2.51630249478811,"0"
"182",1033,1,2,62,"High Prob","3","2","4",0.5307752,4,0.25,"0","Correct",182,1,-0.633416699544751,1.88403678242691,"0"
"183",1033,1,2,63,"Low Prob","2","4","3",0.3128626,3,0.5,"0","Correct",183,1,-1.16199116245666,3.1962912793028,"0"
"184",1033,1,2,64,"High Prob","4","3","2",NA,2,0.25,"0","Correct",184,1,NA,NA,"0"
"185",1033,1,2,65,"Low Prob","3","2","3",0.4236241,4,0.35,"0","Wrong",185,0,-0.858908773577686,2.36058335680147,"0"
"186",1033,1,2,66,"High Prob","2","3","1",0.5136866,1,0.5,"0","Correct",186,1,-0.666141927112914,1.94671225607209,"1"
"187",1033,1,2,67,"High Prob","3","1","2",0.3244262,2,0.6,"0","Correct",187,1,-1.12569719551387,3.08236511107919,"0"
"188",1033,1,2,68,"High Prob","1","2","1",0.4004741,1,0.55,"0","Correct",188,1,-0.915106183728409,2.49704038288618,"0"
"189",1033,1,2,69,"Low Prob","2","1","3",0.4391523,3,0.6,"0","Correct",189,1,-0.822909001242312,2.27711434051467,"0"
"190",1033,1,2,70,"High Prob","1","3","4",0.4125622,4,0.6,"0","Correct",190,1,-0.885368296695963,2.42387693298126,"0"
"191",1033,1,2,71,"High Prob","3","4","2",0.3253317,2,0.55,"0","Correct",191,1,-1.12291000174156,3.07378592372031,"0"
"192",1033,1,2,72,"High Prob","4","2","3",0.4953681,3,0.2,"0","Correct",192,1,-0.702454156410332,2.01870084084946,"0"
"193",1033,1,2,73,"High Prob","2","3","1",0.4827443,1,0.2,"0","Correct",193,1,-0.728268165096923,2.0714900207004,"0"
"194",1033,1,2,74,"Low Prob","3","1","4",0.5481381,4,0.25,"0","Correct",194,1,-0.601228016483357,1.82435776677447,"0"
"195",1033,1,2,75,"High Prob","1","4","3",0.4029071,3,0.25,"0","Correct",195,1,-0.909049264701336,2.48196172268992,"0"
"196",1033,1,2,76,"High Prob","4","3","2",0.4375556,2,0.3,"0","Correct",196,1,-0.826551495544887,2.28542384099301,"0"
"197",1033,1,2,77,"Low Prob","3","2","3",0.4229911,3,0.3,"0","Correct",197,1,-0.860404140346332,2.36411593529982,"0"
"198",1033,1,2,78,"High Prob","2","3","1",0.2889881,1,0.5,"0","Correct",198,1,-1.24136976818807,3.46035009746076,"0"
"199",1033,1,2,79,"Low Prob","3","1","4",0.3383727,4,0.45,"0","Correct",199,1,-1.08360732826324,2.95532115918335,"0"
"200",1033,1,2,80,"High Prob","1","4","3",0.4757406,3,0.2,"0","Correct",200,1,-0.742882531277481,2.10198583009312,"0"
"201",1033,1,2,81,"High Prob","4","3","2",0.4858033,2,0.45,"0","Correct",201,1,-0.72195146951824,2.05844628885806,"0"
"202",1033,1,2,82,"High Prob","3","2","4",0.5072019,4,0.55,"0","Correct",202,1,-0.678846129809355,1.9716014470766,"0"
"203",1033,1,2,83,"High Prob","2","4","1",0.3039387,1,0.55,"0","Correct",203,1,-1.19092924264579,3.29013712304488,"0"
"204",1033,1,2,84,"High Prob","4","1","3",0.3706405,3,0.4,"0","Correct",204,1,-0.992522688856739,2.69803219022206,"0"
"205",1033,1,2,85,"High Prob","1","3","4",0.504682,4,0.25,"0","Correct",205,1,-0.68382675102326,1.98144574207125,"0"
"206",1033,1,2,86,"High Prob","3","4","2",0.4334164,2,0.45,"0","Correct",206,1,-0.836056350263549,2.30725002561048,"0"
"207",1033,1,2,87,"High Prob","4","2","3",0.4347822,3,0.3,"0","Correct",207,1,-0.832910062935546,2.30000216200203,"0"
"208",1033,1,2,88,"High Prob","2","3","1",0.5181381,1,0.25,"0","Correct",208,1,-0.657513469938134,1.92998739139237,"0"
"209",1033,1,2,89,"High Prob","3","1","2",0.4681806,2,0.3,"0","Correct",209,1,-0.758901160067858,2.13592788765703,"0"
"210",1033,1,2,90,"High Prob","1","2","1",0.4862937,1,0.25,"0","Correct",210,1,-0.720942516622384,2.05637046089637,"0"
"211",1033,1,2,91,"High Prob","2","1","4",0.4256715,4,0.6,"0","Correct",211,1,-0.854087356944506,2.34922939402802,"0"
"212",1033,1,2,92,"Low Prob","1","4","2",0.3977323,2,0.25,"0","Correct",212,1,-0.921976113068677,2.51425393411599,"0"
"213",1033,1,2,93,"High Prob","4","2","3",0.571102,3,0.45,"0","Correct",213,1,-0.560187451303794,1.75100069689828,"0"
"214",1033,1,2,94,"High Prob","2","3","1",0.3211623,1,0.45,"0","Correct",214,1,-1.13580867615188,3.11369049231494,"0"
"215",1033,1,2,95,"Low Prob","3","1","4",0.4912234,4,0.6,"0","Correct",215,1,-0.710856264847397,2.03573363972482,"0"
"216",1033,1,2,96,"Low Prob","1","4","2",0.3966114,2,0.25,"0","Correct",216,1,-0.924798318982774,2.52135969868743,"0"
"217",1033,1,2,97,"High Prob","4","2","3",0.3819852,3,0.35,"0","Correct",217,1,-0.962373414581606,2.61790247370841,"0"
"218",1033,1,2,98,"High Prob","2","3","1",0.2873674,1,0.35,"0","Correct",218,1,-1.24699374252949,3.47986584421197,"0"
"219",1033,1,2,99,"Low Prob","3","1","4",0.342743,4,0.3,"0","Correct",219,1,-1.07077438379714,2.91763799698316,"0"
"220",1033,1,2,100,"High Prob","1","4","3",0.4421249,3,0.35,"0","Correct",220,1,-0.816162857636897,2.2618043000971,"0"
"221",1033,1,2,101,"High Prob","4","3","2",0.4815235,2,0.55,"0","Correct",221,1,-0.730800243119761,2.07674184126008,"0"
"222",1033,1,2,102,"High Prob","3","2","4",0.4089173,4,0.5,"0","Correct",222,1,-0.894242343873608,2.44548225276847,"0"
"223",1033,1,2,103,"High Prob","2","4","1",0.293641,1,0.45,"0","Correct",223,1,-1.22539734621477,3.40551898406558,"0"
"224",1033,1,2,104,"High Prob","4","1","3",0.3250112,3,0.5,"0","Correct",224,1,-1.12389563570772,3.07681704507414,"0"
"225",1033,1,2,105,"High Prob","1","3","4",0.3910648,4,0.4,"0","Correct",225,1,-0.938882003828033,2.55712096818737,"0"
"226",1033,1,2,106,"High Prob","3","4","2",0.4404433,2,0.35,"0","Correct",226,1,-0.819973559257323,2.27043980462411,"0"
"227",1033,1,2,107,"High Prob","4","2","3",0.4078351,3,0.35,"0","Correct",227,1,-0.896892352942003,2.45197139726326,"0"
"228",1033,1,2,108,"High Prob","2","3","1",0.3185586,1,0.6,"0","Correct",228,1,-1.1439488334524,3.13913986312095,"0"
"229",1033,1,2,109,"High Prob","3","1","2",0.5345976,2,0.25,"0","Correct",229,1,-0.626240964625218,1.87056582371488,"0"
"230",1033,1,2,110,"High Prob","1","2","1",0.3739829,1,0.25,"0","Correct",230,1,-0.983545204538018,2.67391904817038,"0"
"231",1033,1,2,111,"Low Prob","2","1","3",0.5420673,3,0.2,"0","Correct",231,1,-0.612365115509218,1.84478938316331,"0"
"232",1033,1,2,112,"High Prob","1","3","4",0.3674486,4,0.6,"0","Correct",232,1,-1.0011718340567,2.72146907077616,"0"
"233",1033,1,2,113,"High Prob","3","4","2",0.4694315,2,0.25,"0","Correct",233,1,-0.756232890871748,2.13023625385173,"0"
"234",1033,1,2,114,"High Prob","4","2","3",0.4074864,4,0.25,"0","Wrong",234,0,-0.897747721091281,2.45406963275339,"0"
"235",1033,1,2,115,"High Prob","2","3","1",0.4822345,1,0.5,"0","Correct",235,1,-0.729324768718534,2.07367992128311,"1"
"236",1033,1,2,116,"High Prob","3","1","2",0.4056864,2,0.6,"0","Correct",236,1,-0.902174831638744,2.46495815487036,"0"
"237",1033,1,2,117,"Low Prob","1","2","4",0.560375,4,0.5,"0","Correct",237,1,-0.579149076506534,1.78451929511488,"0"
"238",1033,1,2,118,"High Prob","2","4","1",0.565098,1,0.5,"0","Correct",238,1,-0.570756111549205,1.76960456416409,"0"
"239",1033,1,2,119,"High Prob","4","1","3",0.3271805,3,0.55,"0","Correct",239,1,-1.11724327260651,3.05641687080984,"0"
"240",1033,1,2,120,"High Prob","1","3","4",0.4212088,4,0.5,"0","Correct",240,1,-0.864626606253006,2.37411943910004,"0"
"241",1033,1,3,1,"Low Prob","2","3","4",0.3040522,4,0.55,"0","Correct",241,1,-1.19055588179016,3.28890894392476,"0"
"242",1033,1,3,2,"High Prob","3","4","2",0.4547408,2,0.3,"0","Correct",242,1,-0.78802769268465,2.1990549341515,"0"
"243",1033,1,3,3,"High Prob","4","2","3",0.4254247,3,0.25,"0","Correct",243,1,-0.854667314902061,2.3505922434687,"0"
"244",1033,1,3,4,"Low Prob","2","3","4",0.2994435,4,0.3,"0","Correct",244,1,-1.2058295269691,3.33952815806655,"0"
"245",1033,1,3,5,"Low Prob","3","4","1",0.3421399,1,0.2,"0","Correct",245,1,-1.07253556123605,2.92278100274186,"0"
"246",1033,1,3,6,"High Prob","4","1","3",0.2655293,3,0.35,"0","Correct",246,1,-1.32603008657368,3.76606272829401,"0"
"247",1033,1,3,7,"High Prob","1","3","4",0.2996226,4,0.45,"0","Correct",247,1,-1.20523159627218,3.33753194852458,"0"
"248",1033,1,3,8,"High Prob","3","4","2",0.2623488,2,0.6,"0","Correct",248,1,-1.33808036290219,3.8117193598751,"0"
"249",1033,1,3,9,"High Prob","4","2","3",0.3630542,3,0.4,"0","Correct",249,1,-1.01320314456834,2.75440967216465,"0"
"250",1033,1,3,10,"High Prob","2","3","1",0.2977719,1,0.45,"0","Correct",250,1,-1.21142752181424,3.35827524356731,"0"
"251",1033,1,3,11,"High Prob","3","1","2",0.4491256,2,0.3,"0","Correct",251,1,-0.80045269761837,2.22654865365056,"0"
"252",1033,1,3,12,"High Prob","1","2","1",0.4278709,1,0.45,"0","Correct",252,1,-0.848933764415501,2.33715356664826,"0"
"253",1033,1,3,13,"High Prob","2","1","4",0.3619161,4,0.4,"0","Correct",253,1,-1.01634286197451,2.76307133062055,"0"
"254",1033,1,3,14,"High Prob","1","4","3",0.2906935,3,0.6,"0","Correct",254,1,-1.23548583148841,3.44004939910937,"0"
"255",1033,1,3,15,"High Prob","4","3","2",0.4200306,2,0.45,"0","Correct",255,1,-0.867427713215819,2.38077892420219,"0"
"256",1033,1,3,16,"High Prob","3","2","4",0.4740969,4,0.2,"0","Correct",256,1,-0.746343547800356,2.10927344177952,"0"
"257",1033,1,3,17,"High Prob","2","4","1",0.3201214,1,0.55,"0","Correct",257,1,-1.13905498013286,3.12381490272128,"0"
"258",1033,1,3,18,"High Prob","4","1","3",0.3841882,3,0.45,"0","Correct",258,1,-0.956622742289564,2.6028909789525,"0"
"259",1033,1,3,19,"Low Prob","1","3","2",0.4475547,2,0.4,"0","Correct",259,1,-0.8039565141004,2.23436375486616,"0"
"260",1033,1,3,20,"High Prob","3","2","4",0.4369398,4,0.2,"0","Correct",260,1,-0.827959850813045,2.28864479729244,"0"
"261",1033,1,3,21,"High Prob","2","4","1",0.63232,1,0.25,"0","Correct",261,1,-0.458359683862689,1.58147773279352,"0"
"262",1033,1,3,22,"High Prob","4","1","3",0.3577448,3,0.2,"0","Correct",262,1,-1.02793539594122,2.79528870859898,"0"
"263",1033,1,3,23,"High Prob","1","3","4",0.3624104,4,0.3,"0","Correct",263,1,-1.01497800765334,2.75930271316717,"0"
"264",1033,1,3,24,"High Prob","3","4","2",0.42313,2,0.5,"0","Correct",264,1,-0.86007581854642,2.36333987190698,"0"
"265",1033,1,3,25,"High Prob","4","2","3",NA,3,0.3,"0","Correct",265,1,NA,NA,"0"
"266",1033,1,3,26,"High Prob","2","3","1",0.3085841,1,0.6,"0","Correct",266,1,-1.17576086338756,3.24060766578706,"0"
"267",1033,1,3,27,"High Prob","3","1","2",0.5592899,2,0.2,"0","Correct",267,1,-0.581087335604792,1.78798151012561,"0"
"268",1033,1,3,28,"High Prob","1","2","1",0.4800248,1,0.6,"0","Correct",268,1,-0.73391750974821,2.0832257000055,"0"
"269",1033,1,3,29,"High Prob","2","1","4",0.3100958,3,0.55,"0","Wrong",269,0,-1.17087399698551,3.22480988133345,"0"
"270",1033,1,3,30,"High Prob","1","4","3",0.4328214,3,0.6,"0","Correct",270,1,-0.837430107200903,2.31042180446715,"1"
"271",1033,1,3,31,"High Prob","4","3","2",0.5122038,2,0.35,"0","Correct",271,1,-0.669032686267271,1.95234787402983,"0"
"272",1033,1,3,32,"High Prob","3","2","4",0.3249487,4,0.55,"0","Correct",272,1,-1.12408795526526,3.07740883407135,"0"
"273",1033,1,3,33,"High Prob","2","4","1",0.4949729,1,0.2,"0","Correct",273,1,-0.703252265386892,2.02031262721656,"0"
"274",1033,1,3,34,"High Prob","4","1","3",0.2803598,3,0.45,"0","Correct",274,1,-1.27168150071879,3.56684517537821,"0"
"275",1033,1,3,35,"High Prob","1","3","4",0.3124161,4,0.5,"0","Correct",275,1,-1.16341932585289,3.20085936672278,"0"
"276",1033,1,3,36,"High Prob","3","4","2",0.2431477,2,0.6,"0","Correct",276,1,-1.41408620135866,4.11272654440079,"0"
"277",1033,1,3,37,"High Prob","4","2","3",0.4445007,3,0.3,"0","Correct",277,1,-0.810803649226268,2.24971524229321,"0"
"278",1033,1,3,38,"Low Prob","2","3","4",0.4078988,4,0.45,"0","Correct",278,1,-0.896736174560476,2.45158848224118,"0"
"279",1033,1,3,39,"High Prob","3","4","2",0.3026282,2,0.6,"0","Correct",279,1,-1.1952502896369,3.3043847202607,"0"
"280",1033,1,3,40,"High Prob","4","2","3",0.4473258,3,0.45,"0","Correct",280,1,-0.804468090796936,2.23550709572307,"0"
"281",1033,1,3,41,"High Prob","2","3","1",0.5647465,1,0.6,"0","Correct",281,1,-0.571378321085721,1.77070597161735,"0"
"282",1033,1,3,42,"High Prob","3","1","2",0.3428186,3,0.55,"0","Wrong",282,0,-1.07055383468731,2.91699458547465,"0"
"283",1033,1,3,43,"Low Prob","1","2","4",0.5501985,4,0.45,"0","Correct",283,1,-0.597476156776731,1.81752585657722,"1"
"284",1033,1,3,44,"High Prob","2","4","1",0.2949531,1,0.6,"0","Correct",284,1,-1.22093891833231,3.39036951976433,"0"
"285",1033,1,3,45,"High Prob","4","1","3",0.460317,3,0.35,"0","Correct",285,1,-0.775839896405559,2.17241596551941,"0"
"286",1033,1,3,46,"High Prob","1","3","4",0.4690463,4,0.5,"0","Correct",286,1,-0.757053794726121,2.13198569096484,"0"
"287",1033,1,3,47,"Low Prob","3","4","1",0.461119,1,0.5,"0","Correct",287,1,-0.774099134806225,2.16863759680256,"0"
"288",1033,1,3,48,"High Prob","4","1","3",0.4618203,3,0.3,"0","Correct",288,1,-0.772579424604325,2.16534439910935,"0"
"289",1033,1,3,49,"High Prob","1","3","4",0.460503,4,0.35,"0","Correct",289,1,-0.775435908650015,2.1715385133213,"0"
"290",1033,1,3,50,"High Prob","3","4","2",0.3392359,2,0.55,"0","Correct",290,1,-1.08105954340061,2.94780122033075,"0"
"291",1033,1,3,51,"High Prob","4","2","3",0.4466915,3,0.55,"0","Correct",291,1,-0.805887079235821,2.23868150614014,"0"
"292",1033,1,3,52,"High Prob","2","3","1",0.4840165,1,0.6,"0","Correct",292,1,-0.725636281937496,2.06604526911789,"0"
"293",1033,1,3,53,"High Prob","3","1","2",0.567464,2,0.6,"0","Correct",293,1,-0.566577967762083,1.76222632625153,"0"
"294",1033,1,3,54,"High Prob","1","2","1",0.5655062,1,0.25,"0","Correct",294,1,-0.570034019737169,1.76832720843733,"0"
"295",1033,1,3,55,"High Prob","2","1","4",NA,4,0.6,"0","Correct",295,1,NA,NA,"0"
"296",1033,1,3,56,"High Prob","1","4","3",0.3323227,3,0.35,"0","Correct",296,1,-1.10164879418825,3.00912336111858,"0"
"297",1033,1,3,57,"High Prob","4","3","2",0.5296992,2,0.3,"0","Correct",297,1,-0.635445980721639,1.88786390464626,"0"
"298",1033,1,3,58,"High Prob","3","2","4",0.5157385,4,0.2,"0","Correct",298,1,-0.66215542490419,1.93896713159867,"0"
"299",1033,1,3,59,"High Prob","2","4","1",0.4517941,1,0.25,"0","Correct",299,1,-0.794528733909111,2.2133976517179,"0"
"300",1033,1,3,60,"Low Prob","4","1","2",0.4165047,2,0.4,"0","Correct",300,1,-0.875857532925104,2.4009332907888,"0"
"301",1033,1,3,61,"High Prob","1","2","1",0.396563,1,0.45,"0","Correct",301,1,-0.924920360238922,2.52166742736967,"0"
"302",1033,1,3,62,"High Prob","2","1","4",0.5659745,4,0.55,"0","Correct",302,1,-0.569206254797405,1.76686405482933,"0"
"303",1033,1,3,63,"High Prob","1","4","3",0.3260377,3,0.6,"0","Correct",303,1,-1.12074226012992,3.06712996687193,"0"
"304",1033,1,3,64,"High Prob","4","3","2",0.3200949,2,0.6,"0","Correct",304,1,-1.13913776465433,3.12407351694763,"0"
"305",1033,1,3,65,"High Prob","3","2","4",0.5221181,4,0.2,"0","Correct",305,1,-0.649861471478358,1.91527549035362,"0"
"306",1033,1,3,66,"High Prob","2","4","1",0.3321389,1,0.2,"0","Correct",306,1,-1.10220202406546,3.01078855864218,"0"
"307",1033,1,3,67,"High Prob","4","1","3",0.357537,3,0.6,"0","Correct",307,1,-1.02851642569997,2.79691332645293,"0"
"308",1033,1,3,68,"High Prob","1","3","4",0.4342691,4,0.5,"0","Correct",308,1,-0.834090890947932,2.30271967312434,"0"
"309",1033,1,3,69,"High Prob","3","4","2",0.5016296,2,0.25,"0","Correct",309,1,-0.689893280240242,1.99350277575326,"0"
"310",1033,1,3,70,"High Prob","4","2","3",NA,3,0.55,"0","Correct",310,1,NA,NA,"0"
"311",1033,1,3,71,"Low Prob","2","3","4",0.3211687,4,0.6,"0","Correct",311,1,-1.13578874873128,3.11362844511311,"0"
"312",1033,1,3,72,"High Prob","3","4","2",0.4992137,2,0.4,"0","Correct",312,1,-0.69472101839324,2.00315015393207,"0"
"313",1033,1,3,73,"High Prob","4","2","3",0.5139269,3,0.3,"0","Correct",313,1,-0.665674241539729,1.94580201970358,"0"
"314",1033,1,3,74,"High Prob","2","3","1",0.3886412,1,0.2,"0","Correct",314,1,-0.945098726042634,2.57306739481043,"0"
"315",1033,1,3,75,"High Prob","3","1","2",0.5020228,1,0.35,"0","Wrong",315,0,-0.689109741995096,1.99194140186462,"0"
"316",1033,1,3,76,"High Prob","1","2","1",0.5647343,1,0.3,"0","Correct",316,1,-0.571399923931914,1.77074422431929,"1"
"317",1033,1,3,77,"High Prob","2","1","4",0.532787,4,0.2,"0","Correct",317,1,-0.629633559453027,1.87692267266281,"0"
"318",1033,1,3,78,"High Prob","1","4","3",0.3681604,3,0.35,"0","Correct",318,1,-0.999236566211534,2.71620739221274,"0"
"319",1033,1,3,79,"High Prob","4","3","2",0.3761989,2,0.6,"0","Correct",319,1,-0.97763728609609,2.6581683253194,"0"
"320",1033,1,3,80,"High Prob","3","2","4",0.3743452,4,0.45,"0","Correct",320,1,-0.982576912612839,2.67133116706185,"0"
"321",1033,1,3,81,"Low Prob","2","4","3",0.4923481,3,0.25,"0","Correct",321,1,-0.708569292339136,2.03108329249163,"0"
"322",1033,1,3,82,"Low Prob","4","3","1",0.4677239,1,0.5,"0","Correct",322,1,-0.75987711442271,2.13801347333331,"0"
"323",1033,1,3,83,"High Prob","3","1","2",0.4857673,2,0.25,"0","Correct",323,1,-0.722025576330481,2.05859883940315,"0"
"324",1033,1,3,84,"High Prob","1","2","1",0.3971599,1,0.5,"0","Correct",324,1,-0.923416308604468,2.51787756014643,"0"
"325",1033,1,3,85,"High Prob","2","1","4",0.5325703,4,0.2,"0","Correct",325,1,-0.630040371332926,1.87768638243627,"0"
"326",1033,1,3,86,"Low Prob","1","4","2",0.3519359,2,0.35,"0","Correct",326,1,-1.0443062222394,2.84142652113638,"0"
"327",1033,1,3,87,"High Prob","4","2","3",0.4166408,3,0.4,"0","Correct",327,1,-0.875530819280943,2.40014900125,"0"
"328",1033,1,3,88,"High Prob","2","3","1",0.3327121,1,0.45,"0","Correct",328,1,-1.10047772751775,3.00560153958933,"0"
"329",1033,1,3,89,"High Prob","3","1","2",0.5041104,2,0.55,"0","Correct",329,1,-0.684959987279148,1.98369246101648,"0"
"330",1033,1,3,90,"High Prob","1","2","1",0.3828359,1,0.5,"0","Correct",330,1,-0.960148841146529,2.61208523025139,"0"
"331",1033,1,3,91,"High Prob","2","1","4",0.5142083,4,0.3,"0","Correct",331,1,-0.66512684270147,1.94473718141072,"0"
"332",1033,1,3,92,"High Prob","1","4","3",0.3429611,3,0.55,"0","Correct",332,1,-1.07013824932644,2.9157825770911,"0"
"333",1033,1,3,93,"High Prob","4","3","2",0.5122868,2,0.2,"0","Correct",333,1,-0.668870654521578,1.95203155732297,"0"
"334",1033,1,3,94,"High Prob","3","2","4",0.4490315,4,0.25,"0","Correct",334,1,-0.800662237798689,2.22701525394098,"0"
"335",1033,1,3,95,"High Prob","2","4","1",0.3717284,1,0.25,"0","Correct",335,1,-0.989591798894173,2.69013613164881,"0"
"336",1033,1,3,96,"High Prob","4","1","3",0.433785,3,0.45,"0","Correct",336,1,-0.835206259333812,2.3052894867273,"0"
"337",1033,1,3,97,"High Prob","1","3","4",NA,4,0.5,"0","Correct",337,1,NA,NA,"0"
"338",1033,1,3,98,"High Prob","3","4","2",0.4159207,2,0.4,"0","Correct",338,1,-0.877260661892128,2.40430447438658,"0"
"339",1033,1,3,99,"High Prob","4","2","3",0.5459605,3,0.3,"0","Correct",339,1,-0.605208650176553,1.83163433984693,"0"
"340",1033,1,3,100,"Low Prob","2","3","4",0.4753918,4,0.4,"0","Correct",340,1,-0.743615972837533,2.10352807936527,"0"
"341",1033,1,3,101,"Low Prob","3","4","1",0.40341,1,0.5,"0","Correct",341,1,-0.907801864478249,2.47886765325599,"0"
"342",1033,1,3,102,"High Prob","4","1","3",0.3760783,3,0.25,"0","Correct",342,1,-0.977957912591305,2.65902074115949,"0"
"343",1033,1,3,103,"Low Prob","1","3","2",0.5761443,2,0.6,"0","Correct",343,1,-0.551397128828016,1.73567628804103,"0"
"344",1033,1,3,104,"Low Prob","3","2","3",0.5121896,3,0.2,"0","Correct",344,1,-0.669060409991381,1.95240200113395,"0"
"345",1033,1,3,105,"High Prob","2","3","1",0.6389161,1,0.3,"0","Correct",345,1,-0.447982132129596,1.56515072949328,"0"
"346",1033,1,3,106,"High Prob","3","1","2",0.5343034,2,0.35,"0","Correct",346,1,-0.626791436572441,1.87159580118712,"0"
"347",1033,1,3,107,"High Prob","1","2","1",0.4137033,1,0.45,"0","Correct",347,1,-0.882606228751807,2.41719125759935,"0"
"348",1033,1,3,108,"High Prob","2","1","4",0.5324123,4,0.2,"0","Correct",348,1,-0.630337089797921,1.87824360932308,"0"
"349",1033,1,3,109,"High Prob","1","4","3",0.4399294,3,0.55,"0","Correct",349,1,-0.821141019489492,2.27309200067102,"0"
"350",1033,1,3,110,"High Prob","4","3","2",0.4392334,2,0.35,"0","Correct",350,1,-0.822724344319436,2.27669389440785,"0"
"351",1033,1,3,111,"High Prob","3","2","4",0.3506387,4,0.55,"0","Correct",351,1,-1.04799893038473,2.8519384768424,"0"
"352",1033,1,3,112,"Low Prob","2","4","3",0.4813665,3,0.35,"0","Correct",352,1,-0.731126344754197,2.07741918060355,"0"
"353",1033,1,3,113,"High Prob","4","3","2",0.5487317,3,0.6,"0","Wrong",353,0,-0.600145663668192,1.82238423623057,"0"
"354",1033,1,3,114,"Low Prob","3","2","3",NA,3,0.25,"0","Correct",354,1,NA,NA,"1"
"355",1033,1,3,115,"High Prob","2","3","1",0.634248,1,0.25,"0","Correct",355,1,-0.455315233838423,1.57667032454182,"0"
"356",1033,1,3,116,"High Prob","3","1","2",0.5036106,2,0.6,"0","Correct",356,1,-0.685951928582309,1.98566114374876,"0"
"357",1033,1,3,117,"Low Prob","1","2","4",0.432388,4,0.45,"0","Correct",357,1,-0.838431945683586,2.31273763379187,"0"
"358",1033,1,3,118,"Low Prob","2","4","3",0.3957247,3,0.45,"0","Correct",358,1,-0.92703651151284,2.52700930722798,"0"
"359",1033,1,3,119,"High Prob","4","3","2",0.3611205,2,0.45,"0","Correct",359,1,-1.01854358133257,2.76915877110272,"0"
"360",1033,1,3,120,"High Prob","3","2","4",0.5518176,4,0.45,"0","Correct",360,1,-0.594537722093253,1.81219301450334,"0"
"361",1033,1,4,1,"High Prob","2","3","1",0.4487409,1,0.6,"0","Correct",361,1,-0.801309617936793,2.22845744615657,"0"
"362",1033,1,4,2,"Low Prob","3","1","4",0.3854369,4,0.3,"0","Correct",362,1,-0.953377782904249,2.59445839254104,"0"
"363",1033,1,4,3,"High Prob","1","4","3",0.2888162,3,0.4,"0","Correct",363,1,-1.24196477935386,3.46240965707602,"0"
"364",1033,1,4,4,"High Prob","4","3","2",0.3781958,2,0.25,"0","Correct",364,1,-0.972343228054769,2.64413301258237,"0"
"365",1033,1,4,5,"High Prob","3","2","4",0.3162324,4,0.35,"0","Correct",365,1,-1.15127789266296,3.16223132101581,"0"
"366",1033,1,4,6,"High Prob","2","4","1",0.2782719,1,0.6,"0","Correct",366,1,-1.27915658572419,3.59360754715083,"0"
"367",1033,1,4,7,"High Prob","4","1","3",0.558335,3,0.3,"0","Correct",367,1,-0.582796138320908,1.79103942973305,"0"
"368",1033,1,4,8,"High Prob","1","3","4",0.3650803,4,0.25,"0","Correct",368,1,-1.0076379495961,2.73912342024481,"0"
"369",1033,1,4,9,"High Prob","3","4","2",0.4450879,2,0.4,"0","Correct",369,1,-0.809483488232114,2.24674721555001,"0"
"370",1033,1,4,10,"High Prob","4","2","3",0.4724864,3,0.45,"0","Correct",370,1,-0.749746315531363,2.11646303470322,"0"
"371",1033,1,4,11,"High Prob","2","3","1",0.3045404,1,0.5,"0","Correct",371,1,-1.18895152411405,3.2836365881177,"0"
"372",1033,1,4,12,"High Prob","3","1","2",0.6312476,2,0.3,"0","Correct",372,1,-0.460057100379993,1.58416443880341,"0"
"373",1033,1,4,13,"High Prob","1","2","1",0.421299,1,0.2,"0","Correct",373,1,-0.86441248360549,2.37361114078125,"0"
"374",1033,1,4,14,"Low Prob","2","1","3",0.5753757,3,0.5,"0","Correct",374,1,-0.552732060247601,1.7379948440645,"0"
"375",1033,1,4,15,"High Prob","1","3","4",0.2454257,4,0.45,"0","Correct",375,1,-1.40476102521245,4.07455290949562,"0"
"376",1033,1,4,16,"High Prob","3","4","2",0.5768672,2,0.25,"0","Correct",376,1,-0.550143194943192,1.73350122870567,"0"
"377",1033,1,4,17,"High Prob","4","2","3",0.5408939,3,0.3,"0","Correct",377,1,-0.614532137668809,1.84879141731863,"0"
"378",1033,1,4,18,"Low Prob","2","3","4",0.4042577,4,0.45,"0","Correct",378,1,-0.905702733087277,2.47366964191406,"0"
"379",1033,1,4,19,"High Prob","3","4","2",0.4489645,2,0.45,"0","Correct",379,1,-0.800811458953625,2.22734759652489,"0"
"380",1033,1,4,20,"High Prob","4","2","3",0.4676774,3,0.25,"0","Correct",380,1,-0.75997653699148,2.13822605069221,"0"
"381",1033,1,4,21,"High Prob","2","3","1",0.3277467,1,0.6,"0","Correct",381,1,-1.1155142250389,3.05113674676206,"0"
"382",1033,1,4,22,"High Prob","3","1","2",0.621807,2,0.3,"0","Correct",382,1,-0.475125523781738,1.60821605417758,"0"
"383",1033,1,4,23,"High Prob","1","2","1",0.5018529,1,0.35,"0","Correct",383,1,-0.689448230119915,1.99261576449992,"0"
"384",1033,1,4,24,"High Prob","2","1","4",0.4606084,4,0.5,"0","Correct",384,1,-0.775207054679779,2.1710416049729,"0"
"385",1033,1,4,25,"High Prob","1","4","3",0.4012975,3,0.2,"0","Correct",385,1,-0.913052231481973,2.49191684473489,"0"
"386",1033,1,4,26,"High Prob","4","3","2",0.4780407,2,0.45,"0","Correct",386,1,-0.738059403671919,2.09187209373595,"0"
"387",1033,1,4,27,"High Prob","3","2","4",0.4820587,4,0.2,"0","Correct",387,1,-0.729689388114269,2.07443616306479,"0"
"388",1033,1,4,28,"High Prob","2","4","1",0.3815022,1,0.4,"0","Correct",388,1,-0.963638661563899,2.62121686323172,"0"
"389",1033,1,4,29,"High Prob","4","1","3",0.4587915,3,0.45,"0","Correct",389,1,-0.779159420489648,2.17963933507922,"0"
"390",1033,1,4,30,"High Prob","1","3","4",0.421565,4,0.45,"0","Correct",390,1,-0.863781302278892,2.37211343446444,"0"
"391",1033,1,4,31,"High Prob","3","4","2",0.3637073,2,0.6,"0","Correct",391,1,-1.01140585570313,2.74946364837879,"0"
"392",1033,1,4,32,"High Prob","4","2","3",0.4523831,3,0.6,"0","Correct",392,1,-0.793225891759776,2.21051582165647,"0"
"393",1033,1,4,33,"High Prob","2","3","1",0.3970717,1,0.5,"0","Correct",393,1,-0.923638410067977,2.51843684654434,"0"
"394",1033,1,4,34,"High Prob","3","1","2",0.4084825,2,0.5,"0","Correct",394,1,-0.895306205257006,2.44808529129155,"0"
"395",1033,1,4,35,"High Prob","1","2","1",0.4871896,1,0.4,"0","Correct",395,1,-0.719101909283911,2.05258897152156,"0"
"396",1033,1,4,36,"High Prob","2","1","4",0.4845855,4,0.35,"0","Correct",396,1,-0.724461392632183,2.0636193200168,"0"
"397",1033,1,4,37,"High Prob","1","4","3",0.3539615,3,0.35,"0","Correct",397,1,-1.03856712882499,2.82516601381789,"0"
"398",1033,1,4,38,"Low Prob","4","3","1",0.30668,1,0.4,"0","Correct",398,1,-1.18195042029144,3.26072779444372,"0"
"399",1033,1,4,39,"High Prob","3","1","2",0.3973703,2,0.2,"0","Correct",399,1,-0.922886687439865,2.5165443919689,"0"
"400",1033,1,4,40,"High Prob","1","2","1",0.5327103,1,0.2,"0","Correct",400,1,-0.629777529785251,1.8771929132964,"0"
"401",1033,1,4,41,"High Prob","2","1","4",0.3901737,4,0.6,"0","Correct",401,1,-0.941163254397348,2.56296106067631,"0"
"402",1033,1,4,42,"High Prob","1","4","3",0.2735205,3,0.5,"0","Correct",402,1,-1.29637870563287,3.65603309441157,"0"
"403",1033,1,4,43,"High Prob","4","3","2",0.5596018,2,0.55,"0","Correct",403,1,-0.58052981961271,1.78698495966239,"0"
"404",1033,1,4,44,"High Prob","3","2","4",0.4383328,4,0.45,"0","Correct",404,1,-0.82477683976916,2.28137159710613,"0"
"405",1033,1,4,45,"High Prob","2","4","1",0.3537107,1,0.45,"0","Correct",405,1,-1.0392759316026,2.82716920918706,"0"
"406",1033,1,4,46,"High Prob","4","1","3",0.3324995,3,0.55,"0","Correct",406,1,-1.10111692264676,3.00752331958394,"0"
"407",1033,1,4,47,"High Prob","1","3","4",0.493818,4,0.4,"0","Correct",407,1,-0.705588250730556,2.02503756444682,"0"
"408",1033,1,4,48,"High Prob","3","4","2",0.4972388,2,0.2,"0","Correct",408,1,-0.698684885383069,2.01110613250615,"0"
"409",1033,1,4,49,"High Prob","4","2","3",0.4645951,3,0.3,"0","Correct",409,1,-0.76658900540829,2.15241185281549,"0"
"410",1033,1,4,50,"High Prob","2","3","1",0.28265,1,0.45,"0","Correct",410,1,-1.26354589586084,3.53794445427207,"0"
"411",1033,1,4,51,"High Prob","3","1","2",0.5540375,2,0.5,"0","Correct",411,1,-0.590522904995,1.80493197662613,"0"
"412",1033,1,4,52,"High Prob","1","2","1",0.6162785,1,0.25,"0","Correct",412,1,-0.484056307230115,1.62264300961335,"0"
"413",1033,1,4,53,"High Prob","2","1","4",0.3148118,4,0.5,"0","Correct",413,1,-1.1557802790245,3.17650100790377,"0"
"414",1033,1,4,54,"High Prob","1","4","3",0.3208955,3,0.3,"0","Correct",414,1,-1.13663975402479,3.11627928718228,"0"
"415",1033,1,4,55,"High Prob","4","3","2",0.3469769,2,0.6,"0","Correct",415,1,-1.05849707185639,2.88203623930008,"0"
"416",1033,1,4,56,"High Prob","3","2","4",NA,4,0.4,"0","Correct",416,1,NA,NA,"0"
"417",1033,1,4,57,"High Prob","2","4","1",0.3263784,1,0.55,"0","Correct",417,1,-1.11969783455253,3.06392825015381,"0"
"418",1033,1,4,58,"High Prob","4","1","3",0.4524329,3,0.5,"0","Correct",418,1,-0.793115814130621,2.21027250670762,"0"
"419",1033,1,4,59,"High Prob","1","3","4",0.537102,4,0.2,"0","Correct",419,1,-0.621567258376297,1.86184374662541,"0"
"420",1033,1,4,60,"High Prob","3","4","2",0.3185171,2,0.5,"0","Correct",420,1,-1.14407911624316,3.1395488656653,"0"
"421",1033,1,4,61,"High Prob","4","2","3",0.4825519,3,0.35,"0","Correct",421,1,-0.728666799220932,2.07231595192144,"0"
"422",1033,1,4,62,"High Prob","2","3","1",0.2619627,1,0.6,"0","Correct",422,1,-1.33955315176831,3.81733735375303,"0"
"423",1033,1,4,63,"High Prob","3","1","2",0.6106461,2,0.2,"0","Correct",423,1,-0.493237702022624,1.63760973827557,"0"
"424",1033,1,4,64,"Low Prob","1","2","4",0.321392,4,0.6,"0","Correct",424,1,-1.13509371708994,3.11146512669886,"0"
"425",1033,1,4,65,"High Prob","2","4","1",0.4654315,1,0.45,"0","Correct",425,1,-0.76479034669145,2.14854387810021,"0"
"426",1033,1,4,66,"High Prob","4","1","3",0.4934956,3,0.4,"0","Correct",426,1,-0.706241336055136,2.02636051871587,"0"
"427",1033,1,4,67,"Low Prob","1","3","2",0.5609059,2,0.6,"0","Correct",427,1,-0.578202123714111,1.78283023943945,"0"
"428",1033,1,4,68,"High Prob","3","2","4",0.4376221,4,0.5,"0","Correct",428,1,-0.826399526407356,2.28507655349216,"0"
"429",1033,1,4,69,"High Prob","2","4","1",0.3050668,1,0.45,"0","Correct",429,1,-1.18722450996187,3.27797059529257,"0"
"430",1033,1,4,70,"High Prob","4","1","3",0.4817789,3,0.45,"0","Correct",430,1,-0.730269983865794,2.07564092159287,"0"
"431",1033,1,4,71,"High Prob","1","3","4",0.4031576,4,0.25,"0","Correct",431,1,-0.908427726484704,2.48041956793075,"0"
"432",1033,1,4,72,"High Prob","3","4","2",0.3718743,2,0.35,"0","Correct",432,1,-0.989199385036956,2.68908069205105,"0"
"433",1033,1,4,73,"High Prob","4","2","3",0.4299397,4,0.55,"0","Wrong",433,0,-0.844110312686173,2.32590756331644,"0"
"434",1033,1,4,74,"High Prob","2","3","1",0.5919803,1,0.3,"0","Correct",434,1,-0.524281921678851,1.6892454022541,"1"
"435",1033,1,4,75,"High Prob","3","1","2",0.4273767,2,0.3,"0","Correct",435,1,-0.850089453259305,2.33985615032359,"0"
"436",1033,1,4,76,"High Prob","1","2","1",0.3934289,1,0.4,"0","Correct",436,1,-0.932854913600324,2.54175532097413,"0"
"437",1033,1,4,77,"High Prob","2","1","4",0.4488549,4,0.2,"0","Correct",437,1,-0.801055606051682,2.227891463366,"0"
"438",1033,1,4,78,"High Prob","1","4","3",0.3195126,3,0.35,"0","Correct",438,1,-1.14095856932243,3.12976702640209,"0"
"439",1033,1,4,79,"High Prob","4","3","2",0.5455573,2,0.4,"0","Correct",439,1,-0.605947437978894,1.83298802893848,"0"
"440",1033,1,4,80,"High Prob","3","2","4",0.5429488,4,0.3,"0","Correct",440,1,-0.610740254469934,1.84179429073239,"0"
"441",1033,1,4,81,"High Prob","2","4","1",0.462329,1,0.25,"0","Correct",441,1,-0.771478520126275,2.16296187347106,"0"
"442",1033,1,4,82,"High Prob","4","1","3",0.311065,3,0.5,"0","Correct",442,1,-1.1677533854256,3.21476218796715,"0"
"443",1033,1,4,83,"High Prob","1","3","4",0.4317647,4,0.25,"0","Correct",443,1,-0.83987451505377,2.3160763258321,"0"
"444",1033,1,4,84,"High Prob","3","4","2",0.4311616,2,0.35,"0","Correct",444,1,-0.841272317156215,2.31931600587807,"0"
"445",1033,1,4,85,"High Prob","4","2","3",0.4851811,3,0.2,"0","Correct",445,1,-0.723233055679999,2.06108605632,"0"
"446",1033,1,4,86,"High Prob","2","3","1",0.3545654,1,0.35,"0","Correct",446,1,-1.03686246483485,2.82035415751227,"0"
"447",1033,1,4,87,"High Prob","3","1","2",0.4872903,2,0.3,"0","Correct",447,1,-0.718895234933094,2.05216479786279,"0"
"448",1033,1,4,88,"High Prob","1","2","1",0.3946921,1,0.6,"0","Correct",448,1,-0.929649311715061,2.53362051077283,"0"
"449",1033,1,4,89,"High Prob","2","1","4",0.4980494,4,0.2,"0","Correct",449,1,-0.697056010090012,2.0078329579355,"0"
"450",1033,1,4,90,"High Prob","1","4","3",0.3174429,3,0.4,"0","Correct",450,1,-1.14745731934268,3.15017283423255,"0"
"451",1033,1,4,91,"High Prob","4","3","2",0.5514874,2,0.2,"0","Correct",451,1,-0.595136287331077,1.8132780549474,"0"
"452",1033,1,4,92,"High Prob","3","2","4",NA,4,0.25,"0","Correct",452,1,NA,NA,"0"
"453",1033,1,4,93,"High Prob","2","4","1",NA,1,0.45,"0","Correct",453,1,NA,NA,"0"
"454",1033,1,4,94,"High Prob","4","1","3",NA,4,0.6,"0","Wrong",454,0,NA,NA,"0"
"455",1033,1,4,95,"High Prob","1","3","4",0.5464465,3,0.6,"0","Wrong",455,0,-0.604318871857549,1.83000531616544,"1"
"456",1033,1,4,96,"Low Prob","3","4","1",0.4958356,1,0.3,"0","Correct",456,1,-0.701510858812339,2.01679750304335,"1"
"457",1033,1,4,97,"High Prob","4","1","3",0.4052159,3,0.55,"0","Correct",457,1,-0.903335267495933,2.46782024101226,"0"
"458",1033,1,4,98,"High Prob","1","3","4",0.5879808,4,0.2,"0","Correct",458,1,-0.531060984677857,1.70073580633925,"0"
"459",1033,1,4,99,"High Prob","3","4","2",0.553262,2,0.25,"0","Correct",459,1,-0.591923610272647,1.80746192581453,"0"
"460",1033,1,4,100,"High Prob","4","2","3",0.4260454,3,0.2,"0","Correct",460,1,-0.853209365621288,2.34716769621266,"0"
"461",1033,1,4,101,"High Prob","2","3","1",0.2900503,1,0.55,"0","Correct",461,1,-1.23770092276617,3.44767786828698,"0"
"462",1033,1,4,102,"High Prob","3","1","2",0.4194214,2,0.45,"0","Correct",462,1,-0.868879136541861,2.38423695119038,"0"
"463",1033,1,4,103,"High Prob","1","2","1",0.3035056,1,0.45,"0","Correct",463,1,-1.19235521725248,3.29483212171373,"0"
"464",1033,1,4,104,"High Prob","2","1","4",0.4882618,4,0.25,"0","Correct",464,1,-0.71690354157064,2.04808158246252,"0"
"465",1033,1,4,105,"High Prob","1","4","3",0.3896381,3,0.35,"0","Correct",465,1,-0.94253691938734,2.56648412976041,"0"
"466",1033,1,4,106,"High Prob","4","3","2",0.5209832,2,0.3,"0","Correct",466,1,-0.652037483430055,1.91944769044376,"0"
"467",1033,1,4,107,"High Prob","3","2","4",0.3350588,4,0.5,"0","Correct",467,1,-1.09344924017126,2.98455077138699,"0"
"468",1033,1,4,108,"High Prob","2","4","1",0.2725017,1,0.4,"0","Correct",468,1,-1.30011042636619,3.66970187708921,"0"
"469",1033,1,4,109,"High Prob","4","1","3",0.3424566,3,0.35,"0","Correct",469,1,-1.07161034463739,2.92007804784606,"0"
"470",1033,1,4,110,"High Prob","1","3","4",0.543853,4,0.2,"0","Correct",470,1,-0.609076289230591,1.83873215740283,"0"
"471",1033,1,4,111,"High Prob","3","4","2",0.3432525,1,0.45,"0","Wrong",471,0,-1.06928895103939,2.91330725923336,"0"
"472",1033,1,4,112,"Low Prob","4","2","1",0.464627,1,0.6,"0","Correct",472,1,-0.766520345827308,2.15226407419285,"1"
"473",1033,1,4,113,"High Prob","2","1","4",0.4793683,4,0.35,"0","Correct",473,1,-0.735286083490232,2.08607869982225,"0"
"474",1033,1,4,114,"High Prob","1","4","3",0.2914255,3,0.6,"0","Correct",474,1,-1.23297088047041,3.43140871337615,"0"
"475",1033,1,4,115,"High Prob","4","3","2",0.4568373,2,0.35,"0","Correct",475,1,-0.783427968982681,2.18896311662817,"0"
"476",1033,1,4,116,"High Prob","3","2","4",0.459505,4,0.25,"0","Correct",476,1,-0.777605455852779,2.17625488297189,"0"
"477",1033,1,4,117,"Low Prob","2","4","3",0.5022318,3,0.45,"0","Correct",477,1,-0.688693512877465,1.99111247037722,"0"
"478",1033,1,4,118,"High Prob","4","3","2",0.5209715,2,0.6,"0","Correct",478,1,-0.652059941220208,1.91949079748124,"0"
"479",1033,1,4,119,"High Prob","3","2","4",0.443015,4,0.2,"0","Correct",479,1,-0.814151649465093,2.25725991219259,"0"
"480",1033,1,4,120,"High Prob","2","4","1",0.2963914,1,0.4,"0","Correct",480,1,-1.21607440082595,3.37391705697264,"0"
"481",1033,1,5,1,"High Prob","2","3","1",0.3132093,1,0.6,"0","Correct",481,1,-1.16088362181974,3.19275321645941,"0"
"482",1033,1,5,2,"High Prob","3","1","2",0.3419252,2,0.55,"0","Correct",482,1,-1.0731632792911,2.92461626110038,"0"
"483",1033,1,5,3,"High Prob","1","2","1",0.2733068,1,0.55,"0","Correct",483,1,-1.29716030527458,3.6588917655909,"0"
"484",1033,1,5,4,"High Prob","2","1","4",0.3913452,4,0.35,"0","Correct",484,1,-0.938165244042231,2.55528878340657,"0"
"485",1033,1,5,5,"Low Prob","1","4","2",0.4427272,2,0.3,"0","Correct",485,1,-0.814801499974933,2.25872727042748,"0"
"486",1033,1,5,6,"High Prob","4","2","3",0.5121047,3,0.2,"0","Correct",486,1,-0.669226182660807,1.95272568285353,"0"
"487",1033,1,5,7,"High Prob","2","3","1",0.2448597,1,0.55,"0","Correct",487,1,-1.40706988552702,4.08397135175776,"0"
"488",1033,1,5,8,"High Prob","3","1","2",0.4381886,2,0.5,"0","Correct",488,1,-0.825105867677209,2.28212235553367,"0"
"489",1033,1,5,9,"High Prob","1","2","1",0.3675751,1,0.5,"0","Correct",489,1,-1.00082762746513,2.7205324843821,"0"
"490",1033,1,5,10,"High Prob","2","1","4",0.4616299,4,0.45,"0","Correct",490,1,-0.77299179118933,2.16623749891417,"0"
"491",1033,1,5,11,"High Prob","1","4","3",0.3303505,3,0.4,"0","Correct",491,1,-1.10760106696115,3.02708789603769,"0"
"492",1033,1,5,12,"High Prob","4","3","2",0.4603983,2,0.4,"0","Correct",492,1,-0.775663294582582,2.17203234677452,"0"
"493",1033,1,5,13,"High Prob","3","2","4",0.447201,4,0.25,"0","Correct",493,1,-0.804747121007791,2.23613095677335,"0"
"494",1033,1,5,14,"High Prob","2","4","1",0.3165269,1,0.4,"0","Correct",494,1,-1.15034704890842,3.1592891473047,"0"
"495",1033,1,5,15,"High Prob","4","1","3",0.3705843,3,0.3,"0","Correct",495,1,-0.992674329762731,2.69844135328993,"0"
"496",1033,1,5,16,"High Prob","1","3","4",0.4146368,4,0.5,"0","Correct",496,1,-0.880352322668572,2.41174927068702,"0"
"497",1033,1,5,17,"Low Prob","3","4","1",0.5733584,1,0.4,"0","Correct",497,1,-0.556244277868247,1.74410979240908,"0"
"498",1033,1,5,18,"High Prob","4","1","3",0.3394258,3,0.45,"0","Correct",498,1,-1.08049991257141,2.94615200140944,"0"
"499",1033,1,5,19,"High Prob","1","3","4",0.4427933,4,0.25,"0","Correct",499,1,-0.814652209246773,2.25839008855825,"0"
"500",1033,1,5,20,"High Prob","3","4","2",0.5801958,2,0.5,"0","Correct",500,1,-0.544389646204178,1.72355608227429,"0"
"501",1033,1,5,21,"High Prob","4","2","3",0.4642807,3,0.3,"0","Correct",501,1,-0.767265952771988,2.15386941563584,"0"
"502",1033,1,5,22,"High Prob","2","3","1",0.3909605,1,0.55,"0","Correct",502,1,-0.939148747117843,2.55780315402707,"0"
"503",1033,1,5,23,"High Prob","3","1","2",NA,2,0.3,"0","Correct",503,1,NA,NA,"0"
"504",1033,1,5,24,"High Prob","1","2","1",0.4890669,1,0.4,"0","Correct",504,1,-0.715255989048923,2.04471003864706,"0"
"505",1033,1,5,25,"High Prob","2","1","4",0.4564675,4,0.3,"0","Correct",505,1,-0.784237775347892,2.19073647083308,"0"
"506",1033,1,5,26,"High Prob","1","4","3",0.3091883,3,0.4,"0","Correct",506,1,-1.17380480257083,3.23427503563362,"0"
"507",1033,1,5,27,"High Prob","4","3","2",0.567914,2,0.4,"0","Correct",507,1,-0.565785280175106,1.76082998482165,"0"
"508",1033,1,5,28,"High Prob","3","2","4",0.3779184,4,0.55,"0","Correct",508,1,-0.973076979682356,2.64607386144734,"0"
"509",1033,1,5,29,"High Prob","2","4","1",0.4160137,1,0.25,"0","Correct",509,1,-0.877037086570835,2.40376699132745,"0"
"510",1033,1,5,30,"Low Prob","4","1","2",0.5140129,2,0.3,"0","Correct",510,1,-0.665506916565639,1.94547646566847,"0"
"511",1033,1,5,31,"High Prob","1","2","1",0.4647321,1,0.3,"0","Correct",511,1,-0.766294168453141,2.15177733580271,"0"
"512",1033,1,5,32,"High Prob","2","1","4",0.4188176,4,0.25,"0","Correct",512,1,-0.870319776035918,2.38767425246694,"0"
"513",1033,1,5,33,"High Prob","1","4","3",0.406838,3,0.25,"0","Correct",513,1,-0.899340207174294,2.4579808179177,"0"
"514",1033,1,5,34,"High Prob","4","3","2",0.4995948,2,0.45,"0","Correct",514,1,-0.693957909111543,2.00162211456164,"0"
"515",1033,1,5,35,"High Prob","3","2","4",0.4783814,4,0.4,"0","Correct",515,1,-0.737346956700208,2.09038227656844,"0"
"516",1033,1,5,36,"High Prob","2","4","1",0.4503558,1,0.2,"0","Correct",516,1,-0.797717341963329,2.22046657331825,"0"
"517",1033,1,5,37,"High Prob","4","1","3",0.3190847,3,0.4,"0","Correct",517,1,-1.14229869419938,3.13396411673766,"0"
"518",1033,1,5,38,"High Prob","1","3","4",0.5531054,4,0.6,"0","Correct",518,1,-0.592206698876027,1.80797367011785,"0"
"519",1033,1,5,39,"High Prob","3","4","2",0.5018565,2,0.3,"0","Correct",519,1,-0.689441056728891,1.99260147073915,"0"
"520",1033,1,5,40,"High Prob","4","2","3",0.5305743,3,0.35,"0","Correct",520,1,-0.633795274184678,1.88475016599937,"0"
"521",1033,1,5,41,"High Prob","2","3","1",0.2927188,1,0.6,"0","Correct",521,1,-1.22854285776032,3.41624794854311,"0"
"522",1033,1,5,42,"Low Prob","3","1","4",0.4420308,4,0.35,"0","Correct",522,1,-0.816375716074286,2.26228579546946,"0"
"523",1033,1,5,43,"High Prob","1","4","3",0.5774221,3,0.55,"0","Correct",523,1,-0.549181737459794,1.73183534194483,"0"
"524",1033,1,5,44,"High Prob","4","3","2",0.357509,2,0.5,"0","Correct",524,1,-1.02859474233978,2.79713237988414,"0"
"525",1033,1,5,45,"High Prob","3","2","4",0.4462285,4,0.6,"0","Correct",525,1,-0.806924126320655,2.24100432849986,"0"
"526",1033,1,5,46,"High Prob","2","4","1",0.4116157,1,0.4,"0","Correct",526,1,-0.88766513192074,2.42945057732249,"0"
"527",1033,1,5,47,"High Prob","4","1","3",0.3983221,3,0.3,"0","Correct",527,1,-0.920494304519107,2.5105310501225,"0"
"528",1033,1,5,48,"High Prob","1","3","4",0.3650488,4,0.4,"0","Correct",528,1,-1.00772423570637,2.73935977874739,"0"
"529",1033,1,5,49,"High Prob","3","4","2",0.5970248,2,0.2,"0","Correct",529,1,-0.515796625413814,1.67497229595822,"0"
"530",1033,1,5,50,"High Prob","4","2","3",0.4844923,3,0.6,"0","Correct",530,1,-0.724653740450465,2.06401629086778,"0"
"531",1033,1,5,51,"Low Prob","2","3","4",0.4538682,4,0.25,"0","Correct",531,1,-0.789948431458465,2.20328280324552,"0"
"532",1033,1,5,52,"High Prob","3","4","2",0.4965826,2,0.45,"0","Correct",532,1,-0.700005444782094,2.01376367194501,"0"
"533",1033,1,5,53,"Low Prob","4","2","1",0.2819694,1,0.45,"0","Correct",533,1,-1.26595672457003,3.54648412203594,"0"
"534",1033,1,5,54,"High Prob","2","1","4",0.3493601,4,0.4,"0","Correct",534,1,-1.05165208356718,2.86237609847261,"0"
"535",1033,1,5,55,"High Prob","1","4","3",0.3100526,3,0.2,"0","Correct",535,1,-1.17101331847718,3.22525919795544,"0"
"536",1033,1,5,56,"High Prob","4","3","2",0.3747808,2,0.45,"0","Correct",536,1,-0.981413957251272,2.66822633389971,"0"
"537",1033,1,5,57,"High Prob","3","2","4",0.3928278,4,0.35,"0","Correct",537,1,-0.934383931075429,2.54564468197006,"0"
"538",1033,1,5,58,"High Prob","2","4","1",0.2782036,1,0.45,"0","Correct",538,1,-1.27940205924582,3.5944897909301,"0"
"539",1033,1,5,59,"High Prob","4","1","3",0.4022269,3,0.2,"0","Correct",539,1,-0.910738921731912,2.48615893168756,"0"
"540",1033,1,5,60,"High Prob","1","3","4",0.4329265,4,0.4,"0","Correct",540,1,-0.837187311346553,2.3098609117252,"0"
"541",1033,1,5,61,"Low Prob","3","4","1",0.390291,1,0.2,"0","Correct",541,1,-0.940862664246677,2.56219077560077,"0"
"542",1033,1,5,62,"High Prob","4","1","3",0.2717213,3,0.55,"0","Correct",542,1,-1.30297837033366,3.68024148272513,"0"
"543",1033,1,5,63,"High Prob","1","3","4",0.4197572,4,0.4,"0","Correct",543,1,-0.868078830104297,2.38232959434645,"0"
"544",1033,1,5,64,"Low Prob","3","4","1",0.6198329,1,0.55,"0","Correct",544,1,-0.478305353398031,1.61333804643155,"0"
"545",1033,1,5,65,"High Prob","4","1","3",0.3158554,3,0.55,"0","Correct",545,1,-1.15247076506045,3.1660057102079,"0"
"546",1033,1,5,66,"High Prob","1","3","4",0.4679068,4,0.25,"0","Correct",546,1,-0.759486148195694,2.13717774565362,"0"
"547",1033,1,5,67,"High Prob","3","4","2",0.4859915,2,0.25,"0","Correct",547,1,-0.721564144946524,2.05764915641529,"0"
"548",1033,1,5,68,"Low Prob","4","2","1",0.3214247,1,0.4,"0","Correct",548,1,-1.13499197735596,3.11114858316738,"0"
"549",1033,1,5,69,"High Prob","2","1","4",0.3574401,4,0.35,"0","Correct",549,1,-1.02878748333411,2.7976715539191,"0"
"550",1033,1,5,70,"Low Prob","1","4","2",0.3841605,2,0.55,"0","Correct",550,1,-0.956694844969016,2.60307866113252,"0"
"551",1033,1,5,71,"Low Prob","4","2","1",0.4015422,1,0.35,"0","Correct",551,1,-0.912442645265503,2.49039826947205,"0"
"552",1033,1,5,72,"Low Prob","2","1","3",NA,3,0.5,"0","Correct",552,1,NA,NA,"0"
"553",1033,1,5,73,"High Prob","1","3","4",0.3243487,4,0.6,"0","Correct",553,1,-1.12593610734714,3.08310161255464,"0"
"554",1033,1,5,74,"High Prob","3","4","2",0.4384028,3,0.4,"0","Wrong",554,0,-0.824617156507413,2.28100732933275,"0"
"555",1033,1,5,75,"High Prob","4","2","3",0.507785,3,0.6,"0","Correct",555,1,-0.677697149336506,1.96933741642624,"1"
"556",1033,1,5,76,"Low Prob","2","3","4",0.3745093,4,0.4,"0","Correct",556,1,-0.982138643222385,2.67016066089681,"0"
"557",1033,1,5,77,"High Prob","3","4","2",0.5145723,2,0.5,"0","Correct",557,1,-0.664419208799374,1.94336150624509,"0"
"558",1033,1,5,78,"High Prob","4","2","3",0.3433364,3,0.55,"0","Correct",558,1,-1.06904455442762,2.91259534380858,"0"
"559",1033,1,5,79,"High Prob","2","3","1",0.4146786,1,0.25,"0","Correct",559,1,-0.880251516630156,2.41150616405091,"0"
"560",1033,1,5,80,"High Prob","3","1","2",NA,2,0.25,"0","Correct",560,1,NA,NA,"0"
"561",1033,1,5,81,"High Prob","1","2","1",0.2867978,1,0.6,"0","Correct",561,1,-1.24897784113686,3.48677709522179,"0"
"562",1033,1,5,82,"High Prob","2","1","4",0.5921718,4,0.45,"0","Correct",562,1,-0.523958483496088,1.68869912413931,"0"
"563",1033,1,5,83,"High Prob","1","4","3",0.3375817,3,0.55,"0","Correct",563,1,-1.08594772389068,2.96224588003437,"0"
"564",1033,1,5,84,"High Prob","4","3","2",0.5109744,2,0.5,"0","Correct",564,1,-0.67143578788073,1.95704520617863,"0"
"565",1033,1,5,85,"High Prob","3","2","4",0.4616786,4,0.3,"0","Correct",565,1,-0.77288630098742,2.16600899413575,"0"
"566",1033,1,5,86,"High Prob","2","4","1",0.3103844,1,0.5,"0","Correct",566,1,-1.16994374966799,3.22181140547012,"0"
"567",1033,1,5,87,"Low Prob","4","1","2",0.4811103,2,0.2,"0","Correct",567,1,-0.731658721235482,2.0785254441653,"0"
"568",1033,1,5,88,"High Prob","1","2","1",0.347175,1,0.45,"0","Correct",568,1,-1.05792630339669,2.88039173327573,"0"
"569",1033,1,5,89,"High Prob","2","1","4",0.3865503,4,0.25,"0","Correct",569,1,-0.950493277119719,2.58698544536119,"0"
"570",1033,1,5,90,"High Prob","1","4","3",0.3439544,3,0.25,"0","Correct",570,1,-1.06724618853488,2.90736213870211,"0"
"571",1033,1,5,91,"High Prob","4","3","2",0.4653288,2,0.6,"0","Correct",571,1,-0.765011026495728,2.14901807066315,"0"
"572",1033,1,5,92,"Low Prob","3","2","3",0.3633766,3,0.45,"0","Correct",572,1,-1.01231551694802,2.75196586681696,"0"
"573",1033,1,5,93,"Low Prob","2","3","4",0.4041706,4,0.6,"0","Correct",573,1,-0.905918212927201,2.47420272528482,"0"
"574",1033,1,5,94,"High Prob","3","4","2",0.4928347,2,0.55,"0","Correct",574,1,-0.707581455280735,2.02907790380832,"0"
"575",1033,1,5,95,"High Prob","4","2","3",0.5502035,3,0.45,"0","Correct",575,1,-0.597467069188741,1.81750933972612,"0"
"576",1033,1,5,96,"Low Prob","2","3","4",0.4929993,4,0.45,"0","Correct",576,1,-0.707247524818751,2.02840044600469,"0"
"577",1033,1,5,97,"Low Prob","3","4","1",0.3243531,1,0.5,"0","Correct",577,1,-1.12592254179205,3.08305978885357,"0"
"578",1033,1,5,98,"High Prob","4","1","3",0.542395,3,0.2,"0","Correct",578,1,-0.611760760687525,1.84367481263655,"0"
"579",1033,1,5,99,"Low Prob","1","3","2",0.6137865,2,0.45,"0","Correct",579,1,-0.488108131173273,1.62923101110891,"0"
"580",1033,1,5,100,"High Prob","3","2","4",0.5185933,4,0.55,"0","Correct",580,1,-0.656635325359409,1.92829332735305,"0"
"581",1033,1,5,101,"High Prob","2","4","1",0.4406338,1,0.2,"0","Correct",581,1,-0.819541133983829,2.26945822131666,"0"
"582",1033,1,5,102,"High Prob","4","1","3",0.4459276,3,0.2,"0","Correct",582,1,-0.807598671977877,2.24251649819388,"0"
"583",1033,1,5,103,"High Prob","1","3","4",0.4853638,4,0.55,"0","Correct",583,1,-0.722856566138591,2.0603102250312,"0"
"584",1033,1,5,104,"Low Prob","3","4","1",0.4787384,1,0.45,"0","Correct",584,1,-0.73660096854584,2.08882345765454,"0"
"585",1033,1,5,105,"High Prob","4","1","3",0.3148018,3,0.4,"0","Correct",585,1,-1.1558120445391,3.17660191269554,"0"
"586",1033,1,5,106,"High Prob","1","3","4",0.3328425,4,0.4,"0","Correct",586,1,-1.10008587386166,3.00442401436115,"0"
"587",1033,1,5,107,"High Prob","3","4","2",0.6102099,2,0.3,"0","Correct",587,1,-0.493952282642388,1.6387803606595,"0"
"588",1033,1,5,108,"Low Prob","4","2","1",0.4489305,1,0.2,"0","Correct",588,1,-0.800887191639555,2.22751628592845,"0"
"589",1033,1,5,109,"Low Prob","2","1","3",0.3316632,3,0.45,"0","Correct",589,1,-1.10363528280759,3.01510689156952,"0"
"590",1033,1,5,110,"High Prob","1","3","4",0.3510696,4,0.35,"0","Correct",590,1,-1.04677078457496,2.84843803052158,"0"
"591",1033,1,5,111,"High Prob","3","4","2",0.4617536,2,0.45,"0","Correct",591,1,-0.772723863506542,2.16565718166572,"0"
"592",1033,1,5,112,"High Prob","4","2","3",0.4404727,3,0.45,"0","Correct",592,1,-0.819906810554811,2.27028826077076,"0"
"593",1033,1,5,113,"High Prob","2","3","1",0.3558338,1,0.45,"0","Correct",593,1,-1.03329151107292,2.81030076400837,"0"
"594",1033,1,5,114,"High Prob","3","1","2",0.4525569,2,0.4,"0","Correct",594,1,-0.79284177789115,2.20966689492526,"0"
"595",1033,1,5,115,"High Prob","1","2","1",0.4213471,1,0.3,"0","Correct",595,1,-0.864298319426596,2.37334017488194,"0"
"596",1033,1,5,116,"Low Prob","2","1","3",0.5613863,3,0.45,"0","Correct",596,1,-0.57734601862964,1.78130460255265,"0"
"597",1033,1,5,117,"High Prob","1","3","4",0.5560908,4,0.35,"0","Correct",597,1,-0.586823688712557,1.79826747718178,"0"
"598",1033,1,5,118,"High Prob","3","4","2",0.3707979,2,0.45,"0","Correct",598,1,-0.992098108736895,2.69688690254179,"0"
"599",1033,1,5,119,"High Prob","4","2","3",0.3788353,3,0.6,"0","Correct",599,1,-0.970653732994089,2.63966953449164,"0"
"600",1033,1,5,120,"High Prob","2","3","1",0.3788957,1,0.4,"0","Correct",600,1,-0.970494309662781,2.63924874312377,"0"
"601",1033,1,6,1,"High Prob","2","3","1",0.3339564,1,0.5,"0","Correct",601,1,-1.09674483344854,2.99440286217003,"0"
"602",1033,1,6,2,"High Prob","3","1","2",0.3453421,2,0.55,"0","Correct",602,1,-1.06321975905265,2.89567938574532,"0"
"603",1033,1,6,3,"High Prob","1","2","1",0.3986996,1,0.3,"0","Correct",603,1,-0.919547027855928,2.50815400868223,"0"
"604",1033,1,6,4,"High Prob","2","1","4",0.3134271,4,0.5,"0","Correct",604,1,-1.16018848183499,3.19053457725895,"0"
"605",1033,1,6,5,"High Prob","1","4","3",0.3361329,3,0.3,"0","Correct",605,1,-1.09024866150828,2.97501375200107,"0"
"606",1033,1,6,6,"High Prob","4","3","2",0.5595115,2,0.45,"0","Correct",606,1,-0.580691197375259,1.78727336256717,"0"
"607",1033,1,6,7,"High Prob","3","2","4",0.3702544,4,0.55,"0","Correct",607,1,-0.993564942042586,2.70084568880208,"0"
"608",1033,1,6,8,"High Prob","2","4","1",0.2523004,1,0.55,"0","Correct",608,1,-1.37713483792219,3.96352918980707,"0"
"609",1033,1,6,9,"High Prob","4","1","3",0.4650211,3,0.4,"0","Correct",609,1,-0.76567249808017,2.15044005530072,"0"
"610",1033,1,6,10,"High Prob","1","3","4",0.3410946,4,0.6,"0","Correct",610,1,-1.07559542081742,2.93173799878391,"0"
"611",1033,1,6,11,"High Prob","3","4","2",0.446456,2,0.2,"0","Correct",611,1,-0.806414427754308,2.2398623828552,"0"
"612",1033,1,6,12,"High Prob","4","2","3",0.3738495,3,0.55,"0","Correct",612,1,-0.983901968971907,2.67487317757547,"0"
"613",1033,1,6,13,"High Prob","2","3","1",0.3298988,1,0.3,"0","Correct",613,1,-1.10896933822012,3.03123260830291,"0"
"614",1033,1,6,14,"High Prob","3","1","2",0.4819411,2,0.25,"0","Correct",614,1,-0.729933371568588,2.07494235291408,"0"
"615",1033,1,6,15,"High Prob","1","2","1",0.3553403,1,0.25,"0","Correct",615,1,-1.0346793571129,2.81420373653087,"0"
"616",1033,1,6,16,"High Prob","2","1","4",0.3620238,4,0.25,"0","Correct",616,1,-1.01604532346118,2.76224933277867,"0"
"617",1033,1,6,17,"High Prob","1","4","3",0.3247386,3,0.55,"0","Correct",617,1,-1.12473472797368,3.07939986191971,"0"
"618",1033,1,6,18,"High Prob","4","3","2",0.5427888,2,0.2,"0","Correct",618,1,-0.611034984985223,1.84233720371533,"0"
"619",1033,1,6,19,"High Prob","3","2","4",0.6281412,4,0.5,"0","Correct",619,1,-0.464990297022504,1.59199874168419,"0"
"620",1033,1,6,20,"High Prob","2","4","1",0.2982521,1,0.4,"0","Correct",620,1,-1.20981617695597,3.35286826144728,"0"
"621",1033,1,6,21,"High Prob","4","1","3",0.276983,3,0.6,"0","Correct",621,1,-1.28379914651928,3.61032987584076,"0"
"622",1033,1,6,22,"Low Prob","1","3","2",0.385009,2,0.2,"0","Correct",622,1,-0.954488568344205,2.59734188031968,"0"
"623",1033,1,6,23,"Low Prob","3","2","3",0.438379,3,0.25,"0","Correct",623,1,-0.824671445955497,2.28113116732325,"0"
"624",1033,1,6,24,"Low Prob","2","3","4",0.2837803,4,0.6,"0","Correct",624,1,-1.25955493174658,3.5238527832975,"0"
"625",1033,1,6,25,"High Prob","3","4","2",0.4531226,2,0.25,"0","Correct",625,1,-0.791592549938949,2.20690824072779,"0"
"626",1033,1,6,26,"High Prob","4","2","3",NA,3,0.2,"0","Correct",626,1,NA,NA,"0"
"627",1033,1,6,27,"Low Prob","2","3","4",0.45194,4,0.35,"0","Correct",627,1,-0.794205851323918,2.21268309952649,"0"
"628",1033,1,6,28,"High Prob","3","4","2",0.5767086,2,0.4,"0","Correct",628,1,-0.550418166039152,1.73397795697862,"0"
"629",1033,1,6,29,"High Prob","4","2","3",0.3047975,4,0.6,"0","Wrong",629,0,-1.18810765730302,3.28086680500988,"0"
"630",1033,1,6,30,"High Prob","2","3","1",0.4654553,1,0.45,"0","Correct",630,1,-0.764739212654518,2.14843401718704,"1"
"631",1033,1,6,31,"High Prob","3","1","2",0.3475063,2,0.45,"0","Correct",631,1,-1.05697248464522,2.87764567145977,"0"
"632",1033,1,6,32,"High Prob","1","2","1",0.3988889,1,0.35,"0","Correct",632,1,-0.919072346980879,2.50696371846898,"0"
"633",1033,1,6,33,"High Prob","2","1","4",0.3276305,3,0.55,"0","Wrong",633,0,-1.11586882999378,3.05221888682525,"0"
"634",1033,1,6,34,"High Prob","1","4","3",NA,3,0.6,"0","Correct",634,1,NA,NA,"1"
"635",1033,1,6,35,"High Prob","4","3","2",0.315784,2,0.6,"0","Correct",635,1,-1.15269684342194,3.16672155650698,"0"
"636",1033,1,6,36,"High Prob","3","2","4",0.4798314,4,0.35,"0","Correct",636,1,-0.734320486782931,2.08406536129149,"0"
"637",1033,1,6,37,"High Prob","2","4","1",0.4198701,1,0.2,"0","Correct",637,1,-0.867809901257699,2.38168900333698,"0"
"638",1033,1,6,38,"High Prob","4","1","3",0.2739124,3,0.4,"0","Correct",638,1,-1.29494693174077,3.65080222728142,"0"
"639",1033,1,6,39,"Low Prob","1","3","2",0.3059787,1,0.5,"0","Wrong",639,0,-1.18423978729563,3.26820134865597,"0"
"640",1033,1,6,40,"High Prob","3","2","4",0.2226879,3,0.55,"0","Wrong",640,0,-1.50198403937857,4.49058974466058,"1"
"641",1033,1,6,41,"High Prob","2","4","1",0.3707418,1,0.45,"0","Correct",641,1,-0.992249415538424,2.69729499074558,"1"
"642",1033,1,6,42,"High Prob","4","1","3",0.5548041,3,0.6,"0","Correct",642,1,-0.589140200518298,1.8024380137061,"0"
"643",1033,1,6,43,"High Prob","1","3","4",0.4695137,4,0.35,"0","Correct",643,1,-0.756057800780846,2.12986330324333,"0"
"644",1033,1,6,44,"High Prob","3","4","2",0.2715846,2,0.45,"0","Correct",644,1,-1.30348158593609,3.68209390370441,"0"
"645",1033,1,6,45,"Low Prob","4","2","1",0.4836423,1,0.4,"0","Correct",645,1,-0.726409695084058,2.06764379377073,"0"
"646",1033,1,6,46,"High Prob","2","1","4",0.5170008,4,0.25,"0","Correct",646,1,-0.659710857086124,1.93423298377875,"0"
"647",1033,1,6,47,"High Prob","1","4","3",0.2350804,3,0.5,"0","Correct",647,1,-1.44782769569073,4.25386378447544,"0"
"648",1033,1,6,48,"High Prob","4","3","2",0.3204494,2,0.4,"0","Correct",648,1,-1.13803089340064,3.12061748282256,"0"
"649",1033,1,6,49,"High Prob","3","2","4",0.4724806,4,0.25,"0","Correct",649,1,-0.749758591092309,2.11648901563366,"0"
"650",1033,1,6,50,"High Prob","2","4","1",0.3185456,1,0.55,"0","Correct",650,1,-1.14398964310333,3.139267972937,"0"
"651",1033,1,6,51,"High Prob","4","1","3",0.4005865,3,0.4,"0","Correct",651,1,-0.914825555769082,2.49633974185351,"0"
"652",1033,1,6,52,"High Prob","1","3","4",0.4553228,4,0.2,"0","Correct",652,1,-0.786748661022813,2.19624407123913,"0"
"653",1033,1,6,53,"High Prob","3","4","2",0.3120173,2,0.3,"0","Correct",653,1,-1.16469664399193,3.20495049473218,"0"
"654",1033,1,6,54,"High Prob","4","2","3",0.6207133,3,0.35,"0","Correct",654,1,-0.47688597837144,1.61104973906633,"0"
"655",1033,1,6,55,"High Prob","2","3","1",0.4067514,1,0.3,"0","Correct",655,1,-0.899553090971273,2.45850413790831,"0"
"656",1033,1,6,56,"Low Prob","3","1","4",0.491494,4,0.25,"0","Correct",656,1,-0.710305546997404,2.03461283352391,"0"
"657",1033,1,6,57,"High Prob","1","4","3",0.2708949,3,0.6,"0","Correct",657,1,-1.30602435620341,3.69146853632165,"0"
"658",1033,1,6,58,"Low Prob","4","3","1",0.3069385,1,0.4,"0","Correct",658,1,-1.18110787719572,3.25798164778938,"0"
"659",1033,1,6,59,"Low Prob","3","1","4",0.4996626,4,0.45,"0","Correct",659,1,-0.693822208339942,2.00135051132504,"0"
"660",1033,1,6,60,"High Prob","1","4","3",0.3203727,3,0.35,"0","Correct",660,1,-1.13827027341068,3.12136458568411,"0"
"661",1033,1,6,61,"High Prob","4","3","2",0.348434,2,0.55,"0","Correct",661,1,-1.0543064497871,2.86998398548936,"0"
"662",1033,1,6,62,"Low Prob","3","2","3",0.4311882,3,0.35,"0","Correct",662,1,-0.841210625253443,2.31917292727398,"0"
"663",1033,1,6,63,"High Prob","2","3","1",0.3312264,1,0.45,"0","Correct",663,1,-1.10495314950279,3.01908301995252,"0"
"664",1033,1,6,64,"Low Prob","3","1","4",0.3352035,4,0.35,"0","Correct",664,1,-1.09301746890128,2.98326240626962,"0"
"665",1033,1,6,65,"High Prob","1","4","3",0.4586301,3,0.55,"0","Correct",665,1,-0.779511276172281,2.1804063885035,"0"
"666",1033,1,6,66,"High Prob","4","3","2",NA,2,0.45,"0","Correct",666,1,NA,NA,"0"
"667",1033,1,6,67,"High Prob","3","2","4",0.360764,4,0.45,"0","Correct",667,1,-1.01953127404236,2.77189520018627,"0"
"668",1033,1,6,68,"Low Prob","2","4","3",0.5134719,3,0.2,"0","Correct",668,1,-0.666559973603552,1.94752624242924,"0"
"669",1033,1,6,69,"High Prob","4","3","2",0.3282012,3,0.5,"0","Wrong",669,0,-1.1141284440257,3.04691146772163,"0"
"670",1033,1,6,70,"Low Prob","3","2","3",0.4822411,3,0.2,"0","Correct",670,1,-0.72931108252471,2.07365154069199,"1"
"671",1033,1,6,71,"High Prob","2","3","1",0.2976186,1,0.5,"0","Correct",671,1,-1.21194247797624,3.3600050534476,"0"
"672",1033,1,6,72,"High Prob","3","1","2",0.5650014,2,0.2,"0","Correct",672,1,-0.57092706996266,1.76990711881422,"0"
"673",1033,1,6,73,"Low Prob","1","2","4",0.3490415,4,0.4,"0","Correct",673,1,-1.0525644526743,2.86498883370602,"0"
"674",1033,1,6,74,"High Prob","2","4","1",0.3177612,2,0.4,"0","Wrong",674,0,-1.14645512169741,3.14701731992452,"0"
"675",1033,1,6,75,"High Prob","4","1","3",0.4818658,3,0.35,"0","Correct",675,1,-0.730089626934996,2.07526659912366,"1"
"676",1033,1,6,76,"Low Prob","1","3","2",0.5712072,2,0.45,"0","Correct",676,1,-0.560003262994188,1.75067821273962,"0"
"677",1033,1,6,77,"High Prob","3","2","4",0.4472976,4,0.5,"0","Correct",677,1,-0.804531134084221,2.23564803388169,"0"
"678",1033,1,6,78,"High Prob","2","4","1",0.3006585,1,0.4,"0","Correct",678,1,-1.20178020981904,3.32603269157533,"0"
"679",1033,1,6,79,"High Prob","4","1","3",0.4213629,3,0.25,"0","Correct",679,1,-0.864260821354895,2.37325118087046,"0"
"680",1033,1,6,80,"High Prob","1","3","4",0.393414,4,0.25,"0","Correct",680,1,-0.932892786471775,2.54185158636957,"0"
"681",1033,1,6,81,"High Prob","3","4","2",0.444786,2,0.3,"0","Correct",681,1,-0.810162011361251,2.24827220281214,"0"
"682",1033,1,6,82,"High Prob","4","2","3",0.4316653,3,0.25,"0","Correct",682,1,-0.840104759544787,2.31660965104214,"0"
"683",1033,1,6,83,"High Prob","2","3","1",0.3815462,1,0.4,"0","Correct",683,1,-0.963523334672318,2.62091458386953,"0"
"684",1033,1,6,84,"Low Prob","3","1","4",0.4369324,4,0.6,"0","Correct",684,1,-0.82797678692796,2.28868355837196,"0"
"685",1033,1,6,85,"High Prob","1","4","3",0.2903503,3,0.4,"0","Correct",685,1,-1.23666715392886,3.44411560793979,"0"
"686",1033,1,6,86,"High Prob","4","3","2",0.4296904,2,0.2,"0","Correct",686,1,-0.844690329619012,2.32725702040353,"0"
"687",1033,1,6,87,"High Prob","3","2","4",0.4057572,4,0.55,"0","Correct",687,1,-0.902000327828055,2.4645280478079,"0"
"688",1033,1,6,88,"High Prob","2","4","1",0.470528,1,0.35,"0","Correct",688,1,-0.753899810569079,2.12527203482046,"0"
"689",1033,1,6,89,"High Prob","4","1","3",0.4745643,3,0.2,"0","Correct",689,1,-0.745358159048671,2.10719601116224,"0"
"690",1033,1,6,90,"High Prob","1","3","4",0.3246404,4,0.45,"0","Correct",690,1,-1.12503717077134,3.08033134508213,"0"
"691",1033,1,6,91,"High Prob","3","4","2",0.2906511,2,0.5,"0","Correct",691,1,-1.23563170022126,3.44055123135608,"0"
"692",1033,1,6,92,"High Prob","4","2","3",0.4020132,3,0.5,"0","Correct",692,1,-0.911270355081304,2.4874805105902,"0"
"693",1033,1,6,93,"High Prob","2","3","1",0.3627453,1,0.55,"0","Correct",693,1,-1.01405434388344,2.75675522191466,"0"
"694",1033,1,6,94,"Low Prob","3","1","4",0.5294672,4,0.25,"0","Correct",694,1,-0.635884061090711,1.88869112194296,"0"
"695",1033,1,6,95,"High Prob","1","4","3",0.425506,3,0.45,"0","Correct",695,1,-0.854476230010548,2.35014312371623,"0"
"696",1033,1,6,96,"Low Prob","4","3","1",0.4655356,1,0.55,"0","Correct",696,1,-0.764566708282673,2.14806343489091,"0"
"697",1033,1,6,97,"High Prob","3","1","2",0.4055923,2,0.6,"0","Correct",697,1,-0.902406811106274,2.46553004088095,"0"
"698",1033,1,6,98,"Low Prob","1","2","4",0.5543129,3,0.25,"0","Wrong",698,0,-0.590025950231114,1.80403522992158,"0"
"699",1033,1,6,99,"High Prob","2","4","1",0.3650906,1,0.55,"0","Correct",699,1,-1.00760973702285,2.73904614361476,"1"
"700",1033,1,6,100,"High Prob","4","1","3",0.5971429,3,0.6,"0","Correct",700,1,-0.515598830748316,1.67464102813581,"0"
"701",1033,1,6,101,"High Prob","1","3","4",0.3805449,4,0.4,"0","Correct",701,1,-0.966151106014038,2.62781080497991,"0"
"702",1033,1,6,102,"High Prob","3","4","2",0.5925853,2,0.3,"0","Correct",702,1,-0.52326045009027,1.68752076705244,"0"
"703",1033,1,6,103,"High Prob","4","2","3",0.4939686,3,0.25,"0","Correct",703,1,-0.705283326567448,2.02442017569538,"0"
"704",1033,1,6,104,"Low Prob","2","3","4",0.3433483,4,0.45,"0","Correct",704,1,-1.06900989514367,2.9124943970889,"0"
"705",1033,1,6,105,"High Prob","3","4","2",0.5067491,2,0.35,"0","Correct",705,1,-0.679739269675285,1.97336314953495,"0"
"706",1033,1,6,106,"High Prob","4","2","3",0.5214769,3,0.3,"0","Correct",706,1,-0.651090300824389,1.91763048372804,"0"
"707",1033,1,6,107,"Low Prob","2","3","4",0.4395209,4,0.3,"0","Correct",707,1,-0.822070008948882,2.27520466034721,"0"
"708",1033,1,6,108,"High Prob","3","4","2",0.4649076,2,0.5,"0","Correct",708,1,-0.765916602817584,2.15096505198022,"0"
"709",1033,1,6,109,"High Prob","4","2","3",0.448959,3,0.3,"0","Correct",709,1,-0.800823709440443,2.2273748827844,"0"
"710",1033,1,6,110,"High Prob","2","3","1",0.3836825,1,0.35,"0","Correct",710,1,-0.957939891317677,2.60632163312114,"0"
"711",1033,1,6,111,"High Prob","3","1","2",NA,2,0.2,"0","Correct",711,1,NA,NA,"0"
"712",1033,1,6,112,"High Prob","1","2","1",0.4351309,1,0.5,"0","Correct",712,1,-0.832108373620427,2.29815901375885,"0"
"713",1033,1,6,113,"High Prob","2","1","4",NA,4,0.5,"0","Correct",713,1,NA,NA,"0"
"714",1033,1,6,114,"Low Prob","1","4","2",0.4746227,1,0.55,"0","Wrong",714,0,-0.74523510637291,2.1069367310076,"0"
"715",1033,1,6,115,"High Prob","4","2","3",0.566686,3,0.4,"0","Correct",715,1,-0.567949920540874,1.76464567679456,"1"
"716",1033,1,6,116,"High Prob","2","3","1",0.3127289,1,0.55,"0","Correct",716,1,-1.16241859793823,3.19765777962958,"0"
"717",1033,1,6,117,"Low Prob","3","1","4",0.5054195,4,0.45,"0","Correct",717,1,-0.682366501472003,1.9785544483345,"0"
"718",1033,1,6,118,"High Prob","1","4","3",0.338174,3,0.45,"0","Correct",718,1,-1.08419472306012,2.95705760939635,"0"
"719",1033,1,6,119,"High Prob","4","3","2",0.3635269,2,0.6,"0","Correct",719,1,-1.0119019819956,2.75082806801918,"0"
"720",1033,1,6,120,"High Prob","3","2","4",0.4342265,4,0.25,"0","Correct",720,1,-0.83418899161772,2.30294558254736,"0"
"721",1033,1,7,1,"High Prob","2","3","1",0.3290074,1,0.4,"0","Correct",721,1,-1.1116750360685,3.03944531338809,"0"
"722",1033,1,7,2,"Low Prob","3","1","4",0.296984,4,0.45,"0","Correct",722,1,-1.21407701368446,3.36718476416238,"0"
"723",1033,1,7,3,"Low Prob","1","4","2",0.2964645,2,0.5,"0","Correct",723,1,-1.21582779789809,3.3730851417286,"0"
"724",1033,1,7,4,"High Prob","4","2","3",0.383819,3,0.3,"0","Correct",724,1,-0.957584191683372,2.60539473032862,"0"
"725",1033,1,7,5,"High Prob","2","3","1",0.3091138,1,0.25,"0","Correct",725,1,-1.17404578509494,3.23505453331427,"0"
"726",1033,1,7,6,"High Prob","3","1","2",0.4998691,2,0.5,"0","Correct",726,1,-0.693409014835548,2.00052373711438,"0"
"727",1033,1,7,7,"Low Prob","1","2","4",0.4226302,4,0.6,"0","Correct",727,1,-0.861257713977726,2.36613474380203,"0"
"728",1033,1,7,8,"High Prob","2","4","1",0.3726755,1,0.4,"0","Correct",728,1,-0.98704721117497,2.68329954611988,"0"
"729",1033,1,7,9,"High Prob","4","1","3",0.3347217,3,0.55,"0","Correct",729,1,-1.09445583868664,2.98755652830396,"0"
"730",1033,1,7,10,"Low Prob","1","3","2",0.4800705,2,0.4,"0","Correct",730,1,-0.733822310865277,2.08302738868562,"0"
"731",1033,1,7,11,"Low Prob","3","2","3",0.5181812,3,0.55,"0","Correct",731,1,-0.657430290941034,1.9298268636531,"0"
"732",1033,1,7,12,"High Prob","2","3","1",0.3502443,1,0.45,"0","Correct",732,1,-1.04912436798738,2.85514996246905,"0"
"733",1033,1,7,13,"High Prob","3","1","2",0.5069589,2,0.5,"0","Correct",733,1,-0.679325343765663,1.97254649242769,"0"
"734",1033,1,7,14,"High Prob","1","2","1",0.5256513,1,0.6,"0","Correct",734,1,-0.643117213834848,1.90240183939429,"0"
"735",1033,1,7,15,"High Prob","2","1","4",0.5117302,4,0.6,"0","Correct",735,1,-0.669957745956221,1.95415474795117,"0"
"736",1033,1,7,16,"Low Prob","1","4","2",0.5284629,2,0.25,"0","Correct",736,1,-0.637782674811384,1.8922804230912,"0"
"737",1033,1,7,17,"High Prob","4","2","3",0.4825682,3,0.2,"0","Correct",737,1,-0.728633021041405,2.07224595404339,"0"
"738",1033,1,7,18,"High Prob","2","3","1",0.345879,1,0.5,"0","Correct",738,1,-1.06166627607022,2.89118448937345,"0"
"739",1033,1,7,19,"Low Prob","3","1","4",0.4732976,4,0.45,"0","Correct",739,1,-0.748030912862424,2.11283556054373,"0"
"740",1033,1,7,20,"Low Prob","1","4","2",0.4753401,2,0.25,"0","Correct",740,1,-0.743724731153208,2.10375686797727,"0"
"741",1033,1,7,21,"High Prob","4","2","3",0.4253676,3,0.35,"0","Correct",741,1,-0.854801542727315,2.35090777952999,"0"
"742",1033,1,7,22,"High Prob","2","3","1",0.4194486,1,0.5,"0","Correct",742,1,-0.86881428739954,2.38408234048224,"0"
"743",1033,1,7,23,"High Prob","3","1","2",0.4175226,2,0.4,"0","Correct",743,1,-0.873416604419769,2.39507993100254,"0"
"744",1033,1,7,24,"Low Prob","1","2","4",NA,4,0.2,"0","Correct",744,1,NA,NA,"0"
"745",1033,1,7,25,"High Prob","2","4","1",0.5129568,1,0.3,"0","Correct",745,1,-0.667563647883589,1.94948190568874,"0"
"746",1033,1,7,26,"High Prob","4","1","3",0.5076715,3,0.4,"0","Correct",746,1,-0.677920694117544,1.96977770073758,"0"
"747",1033,1,7,27,"High Prob","1","3","4",0.5424019,4,0.2,"0","Correct",747,1,-0.611748039412234,1.84365135889089,"0"
"748",1033,1,7,28,"High Prob","3","4","2",0.3117796,2,0.4,"0","Correct",748,1,-1.16545875105436,3.20739394110455,"0"
"749",1033,1,7,29,"High Prob","4","2","3",0.5925127,3,0.25,"0","Correct",749,1,-0.523382971603412,1.68772753731692,"0"
"750",1033,1,7,30,"High Prob","2","3","1",0.3958849,1,0.3,"0","Correct",750,1,-0.92663176654212,2.52598671987742,"0"
"751",1033,1,7,31,"High Prob","3","1","2",NA,2,0.4,"0","Correct",751,1,NA,NA,"0"
"752",1033,1,7,32,"High Prob","1","2","1",0.586013,1,0.55,"0","Correct",752,1,-0.534413305350851,1.70644678531022,"0"
"753",1033,1,7,33,"High Prob","2","1","4",0.6254002,4,0.4,"0","Correct",753,1,-0.469363514163116,1.59897614359573,"0"
"754",1033,1,7,34,"High Prob","1","4","3",0.3854873,3,0.55,"0","Correct",754,1,-0.953247030749701,2.59411918369295,"0"
"755",1033,1,7,35,"High Prob","4","3","2",0.4028637,2,0.35,"0","Correct",755,1,-0.909156987642009,2.48222910130647,"0"
"756",1033,1,7,36,"High Prob","3","2","4",0.5175242,4,0.3,"0","Correct",756,1,-0.658698991650957,1.93227679014817,"0"
"757",1033,1,7,37,"High Prob","2","4","1",0.4556082,1,0.6,"0","Correct",757,1,-0.786122049327003,2.19486831009626,"0"
"758",1033,1,7,38,"High Prob","4","1","3",0.4343278,3,0.45,"0","Correct",758,1,-0.833955730437713,2.30240845739094,"0"
"759",1033,1,7,39,"High Prob","1","3","4",NA,4,0.4,"0","Correct",759,1,NA,NA,"0"
"760",1033,1,7,40,"High Prob","3","4","2",0.3164981,2,0.6,"0","Correct",760,1,-1.15043804057548,3.15957662936997,"0"
"761",1033,1,7,41,"Low Prob","4","2","1",0.5345309,1,0.2,"0","Correct",761,1,-0.626365739149677,1.87079923723773,"0"
"762",1033,1,7,42,"High Prob","2","1","4",NA,4,0.3,"0","Correct",762,1,NA,NA,"0"
"763",1033,1,7,43,"High Prob","1","4","3",0.3166453,3,0.3,"0","Correct",763,1,-1.14997305901632,3.15810782601226,"0"
"764",1033,1,7,44,"High Prob","4","3","2",0.4546473,3,0.2,"0","Wrong",764,0,-0.788233325461963,2.1995071784216,"0"
"765",1033,1,7,45,"High Prob","3","2","4",0.4514014,4,0.4,"0","Correct",765,1,-0.795398313141393,2.21532321344152,"1"
"766",1033,1,7,46,"High Prob","2","4","1",0.3380801,1,0.35,"0","Correct",766,1,-1.08447242932646,2.95787891686024,"0"
"767",1033,1,7,47,"High Prob","4","1","3",0.4254662,3,0.25,"0","Correct",767,1,-0.854569770081608,2.35036296655292,"0"
"768",1033,1,7,48,"High Prob","1","3","4",0.401569,4,0.55,"0","Correct",768,1,-0.912375904819074,2.49023206472611,"0"
"769",1033,1,7,49,"High Prob","3","4","2",0.3162819,2,0.5,"0","Correct",769,1,-1.15112137446218,3.16173641299107,"0"
"770",1033,1,7,50,"High Prob","4","2","3",0.4623332,3,0.4,"0","Correct",770,1,-0.77146943572767,2.16294222435248,"0"
"771",1033,1,7,51,"High Prob","2","3","1",0.4330428,1,0.25,"0","Correct",771,1,-0.83691871059893,2.30924056467398,"0"
"772",1033,1,7,52,"Low Prob","3","1","4",0.5524411,4,0.55,"0","Correct",772,1,-0.59340845760793,1.81014772434564,"0"
"773",1033,1,7,53,"Low Prob","1","4","2",0.475174,2,0.55,"0","Correct",773,1,-0.744074226235271,2.10449224915505,"0"
"774",1033,1,7,54,"High Prob","4","2","3",0.3812243,3,0.25,"0","Correct",774,1,-0.964367363168726,2.62312764427661,"0"
"775",1033,1,7,55,"High Prob","2","3","1",0.4853242,1,0.2,"0","Correct",775,1,-0.722938157752008,2.06047833592473,"0"
"776",1033,1,7,56,"High Prob","3","1","2",0.5846334,2,0.2,"0","Correct",776,1,-0.536770294854574,1.71047360619493,"0"
"777",1033,1,7,57,"High Prob","1","2","1",0.3620534,1,0.55,"0","Correct",777,1,-1.0159635642233,2.76202350261039,"0"
"778",1033,1,7,58,"High Prob","2","1","4",0.3467701,4,0.4,"0","Correct",778,1,-1.05909325463231,2.88375497195404,"0"
"779",1033,1,7,59,"High Prob","1","4","3",0.2961744,3,0.5,"0","Correct",779,1,-1.21680680897269,3.37638904645371,"0"
"780",1033,1,7,60,"High Prob","4","3","2",0.3895975,2,0.55,"0","Correct",780,1,-0.942641124072127,2.56675158336488,"0"
"781",1033,1,7,61,"High Prob","3","2","4",NA,1,0.55,"0","Wrong",781,0,NA,NA,"0"
"782",1033,1,7,62,"High Prob","2","4","1",0.5323004,1,0.5,"0","Correct",782,1,-0.630547287347762,1.87863845302389,"1"
"783",1033,1,7,63,"High Prob","4","1","3",0.5896953,3,0.4,"0","Correct",783,1,-0.528149316161756,1.69579102970636,"0"
"784",1033,1,7,64,"High Prob","1","3","4",0.4410827,4,0.3,"0","Correct",784,1,-0.818522892771862,2.26714854153201,"0"
"785",1033,1,7,65,"High Prob","3","4","2",0.274485,2,0.5,"0","Correct",785,1,-1.29285866433438,3.64318633076489,"0"
"786",1033,1,7,66,"High Prob","4","2","3",0.5245124,3,0.25,"0","Correct",786,1,-0.645286209861849,1.9065326196292,"0"
"787",1033,1,7,67,"High Prob","2","3","1",0.2545845,1,0.6,"0","Correct",787,1,-1.36812247452355,3.92796890619814,"0"
"788",1033,1,7,68,"High Prob","3","1","2",0.2993168,2,0.6,"0","Correct",788,1,-1.2062527347265,3.34094177139405,"0"
"789",1033,1,7,69,"High Prob","1","2","1",0.4460616,1,0.4,"0","Correct",789,1,-0.807298219907363,2.2418428306763,"0"
"790",1033,1,7,70,"Low Prob","2","1","3",0.443392,3,0.4,"0","Correct",790,1,-0.813301024362331,2.25534064665127,"0"
"791",1033,1,7,71,"Low Prob","1","3","2",0.5527832,2,0.4,"0","Correct",791,1,-0.592789397728545,1.80902748129827,"0"
"792",1033,1,7,72,"High Prob","3","2","4",0.4555035,4,0.25,"0","Correct",792,1,-0.786351878447759,2.19537281272262,"0"
"793",1033,1,7,73,"High Prob","2","4","1",0.3062256,2,0.45,"0","Wrong",793,0,-1.18343319376669,3.26556630144573,"0"
"794",1033,1,7,74,"High Prob","4","1","3",0.598933,3,0.35,"0","Correct",794,1,-0.512605540211192,1.66963583572787,"1"
"795",1033,1,7,75,"High Prob","1","3","4",0.3676908,4,0.35,"0","Correct",795,1,-1.00051291138499,2.7196764237778,"0"
"796",1033,1,7,76,"Low Prob","3","4","1",0.3357213,1,0.4,"0","Correct",796,1,-1.09147392750049,2.97866116924961,"0"
"797",1033,1,7,77,"High Prob","4","1","3",0.3311085,3,0.55,"0","Correct",797,1,-1.10530916275604,3.02015804487049,"0"
"798",1033,1,7,78,"High Prob","1","3","4",0.4351517,4,0.25,"0","Correct",798,1,-0.832060573055406,2.29804916308497,"0"
"799",1033,1,7,79,"High Prob","3","4","2",0.4545449,2,0.25,"0","Correct",799,1,-0.788458580365014,2.20000268400327,"0"
"800",1033,1,7,80,"High Prob","4","2","3",0.4891931,3,0.25,"0","Correct",800,1,-0.714997979929262,2.04418255286103,"0"
"801",1033,1,7,81,"High Prob","2","3","1",0.2926131,1,0.4,"0","Correct",801,1,-1.22890402037985,3.41748199243301,"0"
"802",1033,1,7,82,"High Prob","3","1","2",0.5439493,2,0.2,"0","Correct",802,1,-0.608899234998859,1.83840663091211,"0"
"803",1033,1,7,83,"High Prob","1","2","1",0.4713843,1,0.45,"0","Correct",803,1,-0.752081594083523,2.1214113410226,"0"
"804",1033,1,7,84,"High Prob","2","1","4",0.6014504,4,0.25,"0","Correct",804,1,-0.508411207482837,1.66264749345914,"0"
"805",1033,1,7,85,"High Prob","1","4","3",0.2981704,3,0.55,"0","Correct",805,1,-1.21009014381843,3.35378696208611,"0"
"806",1033,1,7,86,"High Prob","4","3","2",0.4348766,2,0.25,"0","Correct",806,1,-0.832692966298633,2.29950289346449,"0"
"807",1033,1,7,87,"High Prob","3","2","4",0.4422794,4,0.55,"0","Correct",807,1,-0.815813469915531,2.26101419148167,"0"
"808",1033,1,7,88,"High Prob","2","4","1",0.5436407,1,0.2,"0","Correct",808,1,-0.609466728279014,1.83945021040551,"0"
"809",1033,1,7,89,"High Prob","4","1","3",0.5290845,3,0.2,"0","Correct",809,1,-0.636607124530454,1.89005725928467,"0"
"810",1033,1,7,90,"Low Prob","1","3","2",0.4270899,2,0.4,"0","Correct",810,1,-0.850760749271976,2.34142741375996,"0"
"811",1033,1,7,91,"High Prob","3","2","4",0.5291318,4,0.2,"0","Correct",811,1,-0.636517728818005,1.88988830382147,"0"
"812",1033,1,7,92,"High Prob","2","4","1",0.2951834,1,0.5,"0","Correct",812,1,-1.22015842089929,3.38772437745483,"0"
"813",1033,1,7,93,"High Prob","4","1","3",0.2945853,3,0.5,"0","Correct",813,1,-1.22218667436557,3.39460251411051,"0"
"814",1033,1,7,94,"High Prob","1","3","4",0.3759612,4,0.45,"0","Correct",814,1,-0.978269332406212,2.65984894185889,"0"
"815",1033,1,7,95,"High Prob","3","4","2",0.2880333,2,0.6,"0","Correct",815,1,-1.24467918053025,3.47182079294304,"0"
"816",1033,1,7,96,"High Prob","4","2","3",0.4174111,3,0.45,"0","Correct",816,1,-0.873683691496654,2.39571971133494,"0"
"817",1033,1,7,97,"High Prob","2","3","1",0.2794678,1,0.6,"0","Correct",817,1,-1.27486819874818,3.5782297638583,"0"
"818",1033,1,7,98,"High Prob","3","1","2",0.4474952,2,0.3,"0","Correct",818,1,-0.804089467581737,2.23466084105483,"0"
"819",1033,1,7,99,"High Prob","1","2","1",0.4328789,1,0.3,"0","Correct",819,1,-0.837297266770827,2.31011490742561,"0"
"820",1033,1,7,100,"High Prob","2","1","4",0.3802582,3,0.45,"0","Wrong",820,0,-0.966904783315225,2.62979207285997,"0"
"821",1033,1,7,101,"High Prob","1","4","3",0.3783208,3,0.45,"0","Correct",821,1,-0.972012766036784,2.64325937141178,"1"
"822",1033,1,7,102,"Low Prob","4","3","1",0.4343557,1,0.2,"0","Correct",822,1,-0.833891495304872,2.30226056662777,"0"
"823",1033,1,7,103,"High Prob","3","1","2",0.3437604,1,0.6,"0","Wrong",823,0,-1.06781037591356,2.90900289853049,"0"
"824",1033,1,7,104,"High Prob","1","2","1",0.4511609,1,0.55,"0","Correct",824,1,-0.795931240354711,2.21650413411269,"1"
"825",1033,1,7,105,"High Prob","2","1","4",0.5878839,4,0.5,"0","Correct",825,1,-0.531225799558718,1.70101613600917,"0"
"826",1033,1,7,106,"High Prob","1","4","3",0.3472918,3,0.6,"0","Correct",826,1,-1.05758993022205,2.87942300969962,"0"
"827",1033,1,7,107,"High Prob","4","3","2",0.3326634,2,0.4,"0","Correct",827,1,-1.10062411102627,3.0060415422917,"0"
"828",1033,1,7,108,"High Prob","3","2","4",0.4360437,4,0.25,"0","Correct",828,1,-0.830012811297931,2.29334812084202,"0"
"829",1033,1,7,109,"High Prob","2","4","1",0.369426,1,0.4,"0","Correct",829,1,-0.995804829286717,2.70690205886971,"0"
"830",1033,1,7,110,"High Prob","4","1","3",0.4014644,3,0.4,"0","Correct",830,1,-0.912636417023402,2.49088088507972,"0"
"831",1033,1,7,111,"High Prob","1","3","4",0.4321879,4,0.4,"0","Correct",831,1,-0.838894831599265,2.31380841527493,"0"
"832",1033,1,7,112,"High Prob","3","4","2",0.4195764,2,0.25,"0","Correct",832,1,-0.868509648083695,2.3833561658854,"0"
"833",1033,1,7,113,"Low Prob","4","2","1",0.303639,1,0.45,"0","Correct",833,1,-1.19191578321272,3.29338457839737,"0"
"834",1033,1,7,114,"High Prob","2","1","4",0.3463254,4,0.6,"0","Correct",834,1,-1.06037648345438,2.88745786477111,"0"
"835",1033,1,7,115,"High Prob","1","4","3",0.3517338,3,0.3,"0","Correct",835,1,-1.04488063948532,2.8430591543946,"0"
"836",1033,1,7,116,"High Prob","4","3","2",0.3624625,2,0.55,"0","Correct",836,1,-1.01483425831441,2.75890609373383,"0"
"837",1033,1,7,117,"High Prob","3","2","4",0.4711776,4,0.5,"0","Correct",837,1,-0.752520185975076,2.12234197890562,"0"
"838",1033,1,7,118,"High Prob","2","4","1",0.4172087,1,0.45,"0","Correct",838,1,-0.874168702765181,2.39688194421641,"0"
"839",1033,1,7,119,"High Prob","4","1","3",0.4392472,3,0.2,"0","Correct",839,1,-0.82269292643724,2.27662236663091,"0"
"840",1033,1,7,120,"High Prob","1","3","4",0.5686576,4,0.3,"0","Correct",840,1,-0.564476783453744,1.75852745131693,"0"
"841",1033,1,8,1,"High Prob","2","3","1",0.3055649,1,0.55,"0","Correct",841,1,-1.18559308430717,3.27262718983758,"0"
"842",1033,1,8,2,"High Prob","3","1","2",0.5362495,2,0.3,"0","Correct",842,1,-0.623155741141277,1.86480360354648,"0"
"843",1033,1,8,3,"Low Prob","1","2","4",0.3716407,4,0.35,"0","Correct",843,1,-0.989827751667585,2.69077095162075,"0"
"844",1033,1,8,4,"High Prob","2","4","1",0.4196921,1,0.4,"0","Correct",844,1,-0.868233931788533,2.38269912633571,"0"
"845",1033,1,8,5,"Low Prob","4","1","2",0.4297452,2,0.5,"0","Correct",845,1,-0.844562804066023,2.32696025458807,"0"
"846",1033,1,8,6,"Low Prob","1","2","4",0.3817895,4,0.35,"0","Correct",846,1,-0.962885869378244,2.61924437419049,"0"
"847",1033,1,8,7,"High Prob","2","4","1",0.4031723,1,0.25,"0","Correct",847,1,-0.908391264981784,2.4803291297542,"0"
"848",1033,1,8,8,"High Prob","4","1","3",NA,3,0.45,"0","Correct",848,1,NA,NA,"0"
"849",1033,1,8,9,"High Prob","1","3","4",0.2933017,4,0.3,"0","Correct",849,1,-1.22655350690233,3.40945858820457,"0"
"850",1033,1,8,10,"High Prob","3","4","2",0.3946362,2,0.35,"0","Correct",850,1,-0.929790951132002,2.53397939672032,"0"
"851",1033,1,8,11,"High Prob","4","2","3",0.542074,3,0.3,"0","Correct",851,1,-0.612352755496736,1.84476658168442,"0"
"852",1033,1,8,12,"High Prob","2","3","1",0.2714481,1,0.6,"0","Correct",852,1,-1.30398431810259,3.68394547613337,"0"
"853",1033,1,8,13,"Low Prob","3","1","4",0.4334765,4,0.45,"0","Correct",853,1,-0.835917694150213,2.30693013346744,"0"
"854",1033,1,8,14,"High Prob","1","4","3",0.310905,3,0.2,"0","Correct",854,1,-1.16826787970516,3.21641659027677,"0"
"855",1033,1,8,15,"Low Prob","4","3","1",0.3856262,1,0.2,"0","Correct",855,1,-0.952886772495884,2.59318479916562,"0"
"856",1033,1,8,16,"High Prob","3","1","2",0.4169574,2,0.4,"0","Correct",856,1,-0.874771220675229,2.39832654367089,"0"
"857",1033,1,8,17,"Low Prob","1","2","4",0.3729974,4,0.25,"0","Correct",857,1,-0.986183829871999,2.68098383527606,"0"
