,SID,Session,Block,Trial,Sequence,Stimt-2,Stimt-1,Stimt,RT,Response,Delay,Result,Trial_Number,Correct,log_RT,inverse_RT,post_error
1,1033,Baseline,1,1,High Prob,2,3,1,0.3573396,1,0.35,Correct,1,1,-1.029068689,2.798458385,0
2,1033,Baseline,1,2,Low Prob,3,1,4,0.4620412,4,0.2,Correct,2,1,-0.772101214,2.164309157,0
3,1033,Baseline,1,3,High Prob,1,4,3,0.3786989,3,0.4,Correct,3,1,-0.971013849,2.640620292,0
4,1033,Baseline,1,4,Low Prob,4,3,1,0.2267684,1,0.6,Correct,4,1,-1.483826047,4.40978549,0
5,1033,Baseline,1,5,High Prob,3,1,2,0.3248532,2,0.5,Correct,5,1,-1.124381891,3.078313527,0
6,1033,Baseline,1,6,High Prob,1,2,1,0.2788667,1,0.4,Correct,6,1,-1.277021389,3.585942674,0
7,1033,Baseline,1,7,High Prob,2,1,4,0.2828955,4,0.4,Correct,7,1,-1.262677707,3.534874185,0
8,1033,Baseline,1,8,High Prob,1,4,3,0.2363023,3,0.45,Correct,8,1,-1.442643361,4.2318674,0
9,1033,Baseline,1,9,Low Prob,4,3,1,0.4256397,1,0.2,Correct,9,1,-0.854162065,2.349404907,0
10,1033,Baseline,1,10,Low Prob,3,1,4,0.2937008,4,0.45,Correct,10,1,-1.225193717,3.404825591,0
11,1033,Baseline,1,11,Low Prob,1,4,2,0.4791527,2,0.25,Correct,11,1,-0.735735943,2.087017354,0
12,1033,Baseline,1,12,High Prob,4,2,3,0.4251698,3,0.45,Correct,12,1,-0.85526666,2.352001483,0
13,1033,Baseline,1,13,Low Prob,2,3,4,0.2872359,4,0.6,Correct,13,1,-1.24745145,3.481458968,0
14,1033,Baseline,1,14,High Prob,3,4,2,0.2686174,2,0.55,Correct,14,1,-1.314467217,3.722767028,0
15,1033,Baseline,1,15,High Prob,4,2,3,0.4026556,3,0.35,Correct,15,1,-0.909673673,2.483511964,0
16,1033,Baseline,1,16,High Prob,2,3,1,0.4993723,1,0.35,Correct,16,1,-0.694403369,2.002513956,0
17,1033,Baseline,1,17,High Prob,3,1,2,0.4000604,2,0.35,Correct,17,1,-0.916139743,2.499622557,0
18,1033,Baseline,1,18,High Prob,1,2,1,0.422778,1,0.2,Correct,18,1,-0.86090806,2.365307561,0
19,1033,Baseline,1,19,High Prob,2,1,4,0.2748451,4,0.45,Correct,19,1,-1.291547613,3.638413055,0
20,1033,Baseline,1,20,High Prob,1,4,3,0.3308916,3,0.3,Correct,20,1,-1.10596445,3.022137764,0
21,1033,Baseline,1,21,High Prob,4,3,2,0.486953,2,0.55,Correct,21,1,-0.71958767,2.05358628,0
22,1033,Baseline,1,22,High Prob,3,2,4,0.4223346,4,0.3,Correct,22,1,-0.861957388,2.367790846,0
23,1033,Baseline,1,23,Low Prob,2,4,3,0.3903752,3,0.35,Correct,23,1,-0.940646951,2.561638137,0
24,1033,Baseline,1,24,High Prob,4,3,2,0.4677687,2,0.45,Correct,24,1,-0.759781336,2.137808708,0
25,1033,Baseline,1,25,High Prob,3,2,4,0.3838652,4,0.4,Correct,25,1,-0.95746383,2.605081159,0
26,1033,Baseline,1,26,High Prob,2,4,1,0.4511706,1,0.3,Correct,26,1,-0.79590974,2.21645648,0
27,1033,Baseline,1,27,High Prob,4,1,3,0.3279014,3,0.6,Correct,27,1,-1.115042326,3.049697257,0
28,1033,Baseline,1,28,High Prob,1,3,4,0.2919503,4,0.55,Correct,28,1,-1.231171697,3.425240529,0
29,1033,Baseline,1,29,High Prob,3,4,2,0.3833706,2,0.6,Correct,29,1,-0.958753134,2.608442066,0
30,1033,Baseline,1,30,High Prob,4,2,3,0.4927752,3,0.45,Correct,30,1,-0.707702193,2.029322904,0
31,1033,Baseline,1,31,High Prob,2,3,1,0.3741656,1,0.45,Correct,31,1,-0.983056799,2.67261341,0
32,1033,Baseline,1,32,High Prob,3,1,2,0.4602566,2,0.25,Correct,32,1,-0.775971119,2.172701054,0
33,1033,Baseline,1,33,High Prob,1,2,1,0.3769346,2,0.4,Wrong,33,0,-0.975683581,2.652980119,0
34,1033,Baseline,1,34,High Prob,2,1,4,0.5749672,4,0.25,Correct,34,1,-0.553442283,1.739229646,0
35,1033,Baseline,1,35,High Prob,1,4,3,0.3730292,3,0.45,Correct,35,1,-0.986098578,2.680755287,0
36,1033,Baseline,1,36,High Prob,4,3,2,0.5410765,2,0.2,Correct,36,1,-0.614194605,1.848167496,0
37,1033,Baseline,1,37,High Prob,3,2,4,0.4304512,4,0.2,Correct,37,1,-0.842921318,2.323143715,0
38,1033,Baseline,1,38,High Prob,2,4,1,0.5185629,1,0.55,Correct,38,1,-0.656693947,1.928406371,0
39,1033,Baseline,1,39,High Prob,4,1,3,0.3205656,3,0.4,Correct,39,1,-1.137668343,3.119486308,0
40,1033,Baseline,1,40,High Prob,1,3,4,0.3546224,4,0.4,Correct,40,1,-1.036701718,2.81990083,0
41,1033,Baseline,1,41,High Prob,3,4,2,0.4753509,2,0.2,Correct,41,1,-0.743702011,2.10370907,0
42,1033,Baseline,1,42,High Prob,4,2,3,0.4693764,3,0.45,Correct,42,1,-0.756350274,2.130486322,0
43,1033,Baseline,1,43,High Prob,2,3,1,0.3013955,1,0.5,Correct,43,1,-1.199331923,3.31789957,0
44,1033,Baseline,1,44,High Prob,3,1,2,0.4121155,2,0.5,Correct,44,1,-0.886451629,2.42650422,0
45,1033,Baseline,1,45,High Prob,1,2,1,0.3988465,1,0.3,Correct,45,1,-0.919178648,2.507230225,0
46,1033,Baseline,1,46,High Prob,2,1,4,0.2815568,4,0.5,Correct,46,1,-1.267421076,3.551681224,0
47,1033,Baseline,1,47,Low Prob,1,4,2,0.3989193,2,0.35,Correct,47,1,-0.918996138,2.506772673,0
48,1033,Baseline,1,48,High Prob,4,2,3,0.4516308,3,0.25,Correct,48,1,-0.794890247,2.214197969,0
49,1033,Baseline,1,49,High Prob,2,3,1,0.5023433,1,0.25,Correct,49,1,-0.688471528,1.990670524,0
50,1033,Baseline,1,50,High Prob,3,1,2,0.4250901,2,0.6,Correct,50,1,-0.855454133,2.352442459,0
51,1033,Baseline,1,51,High Prob,1,2,1,0.4311929,1,0.2,Correct,51,1,-0.841199725,2.319147648,0
52,1033,Baseline,1,52,High Prob,2,1,4,0.4031737,4,0.25,Correct,52,1,-0.908387793,2.480320517,0
53,1033,Baseline,1,53,High Prob,1,4,3,0.4019352,3,0.4,Correct,53,1,-0.911464397,2.487963234,0
54,1033,Baseline,1,54,High Prob,4,3,2,0.4506586,2,0.35,Correct,54,1,-0.797045211,2.21897463,0
55,1033,Baseline,1,55,Low Prob,3,2,3,0.4193891,3,0.3,Correct,55,1,-0.86895615,2.384420577,0
56,1033,Baseline,1,56,High Prob,2,3,1,0.4194522,1,0.35,Correct,56,1,-0.868805705,2.384061879,0
57,1033,Baseline,1,57,High Prob,3,1,2,0.4094672,2,0.6,Correct,57,1,-0.892898477,2.442198056,0
58,1033,Baseline,1,58,High Prob,1,2,1,0.2981851,1,0.35,Correct,58,1,-1.210040844,3.353621626,0
59,1033,Baseline,1,59,Low Prob,2,1,3,0.5689297,3,0.5,Correct,59,1,-0.563998403,1.757686407,0
60,1033,Baseline,1,60,High Prob,1,3,4,0.6529669,4,0.5,Correct,60,1,-0.42622884,1.531471197,0
61,1033,Baseline,1,61,High Prob,3,4,2,0.5377238,2,0.2,Correct,61,1,-0.620410234,1.859690793,0
62,1033,Baseline,1,62,High Prob,4,2,3,0.5630834,3,0.4,Correct,62,1,-0.574327527,1.775935856,0
63,1033,Baseline,1,63,High Prob,2,3,1,0.3038551,1,0.3,Correct,63,1,-1.191204336,3.291042342,0
64,1033,Baseline,1,64,High Prob,3,1,2,0.402528,2,0.4,Correct,64,1,-0.909990619,2.484299229,0
65,1033,Baseline,1,65,Low Prob,1,2,4,0.3032354,4,0.45,Correct,65,1,-1.193245877,3.297768005,0
66,1033,Baseline,1,66,High Prob,2,4,1,0.2780037,1,0.3,Correct,66,1,-1.280120856,3.597074427,0
67,1033,Baseline,1,67,High Prob,4,1,3,0.2779988,3,0.5,Correct,67,1,-1.280138482,3.597137829,0
68,1033,Baseline,1,68,High Prob,1,3,4,0.3680649,4,0.25,Correct,68,1,-0.999495998,2.716912153,0
69,1033,Baseline,1,69,High Prob,3,4,2,0.4220676,2,0.25,Correct,69,1,-0.862589788,2.369288711,0
70,1033,Baseline,1,70,High Prob,4,2,3,0.5561666,3,0.2,Correct,70,1,-0.586687389,1.798022391,0
71,1033,Baseline,1,71,High Prob,2,3,1,0.406851,1,0.35,Correct,71,1,-0.899308254,2.457902279,0
72,1033,Baseline,1,72,High Prob,3,1,2,0.3195707,2,0.55,Correct,72,1,-1.140776746,3.129198015,0
73,1033,Baseline,1,73,High Prob,1,2,1,0.3516132,1,0.45,Correct,73,1,-1.045223571,2.844034297,0
74,1033,Baseline,1,74,High Prob,2,1,4,0.3763287,4,0.2,Correct,74,1,-0.977292315,2.657251493,0
75,1033,Baseline,1,75,High Prob,1,4,3,0.3043666,3,0.6,Correct,75,1,-1.189522383,3.285511617,0
76,1033,Baseline,1,76,High Prob,4,3,2,0.4571137,2,0.25,Correct,76,1,-0.782823123,2.18763953,0
77,1033,Baseline,1,77,High Prob,3,2,4,0.2877684,4,0.55,Correct,77,1,-1.245599289,3.475016715,0
78,1033,Baseline,1,78,High Prob,2,4,1,0.6031417,1,0.2,Correct,78,1,-0.505603118,1.65798518,0
79,1033,Baseline,1,79,High Prob,4,1,3,0.4058613,3,0.3,Correct,79,1,-0.901743803,2.463895917,0
80,1033,Baseline,1,80,High Prob,1,3,4,0.3606331,4,0.3,Correct,80,1,-1.019894181,2.772901323,0
81,1033,Baseline,1,81,High Prob,3,4,2,0.4893511,2,0.4,Correct,81,1,-0.714675051,2.043522534,0
82,1033,Baseline,1,82,High Prob,4,2,3,0.3807561,3,0.6,Correct,82,1,-0.965596266,2.626353196,0
83,1033,Baseline,1,83,High Prob,2,3,1,0.5287867,1,0.3,Correct,83,1,-0.637170142,1.891121694,0
84,1033,Baseline,1,84,Low Prob,3,1,4,0.3268462,4,0.5,Correct,84,1,-1.118265555,3.05954299,0
85,1033,Baseline,1,85,Low Prob,1,4,2,0.4009076,2,0.6,Correct,85,1,-0.914024302,2.494340342,0
86,1033,Baseline,1,86,High Prob,4,2,3,0.4996308,3,0.3,Correct,86,1,-0.693885853,2.001477891,0
87,1033,Baseline,1,87,High Prob,2,3,1,0.3483316,1,0.45,Correct,87,1,-1.054600379,2.870827683,0
88,1033,Baseline,1,88,High Prob,3,1,2,0.445122,2,0.4,Correct,88,1,-0.809406877,2.246575096,0
89,1033,Baseline,1,89,High Prob,1,2,1,0.4404575,1,0.45,Correct,89,1,-0.81994132,2.270366607,0
90,1033,Baseline,1,90,High Prob,2,1,4,0.4598326,4,0.25,Correct,90,1,-0.776892769,2.174704447,0
91,1033,Baseline,1,91,High Prob,1,4,3,0.422636,3,0.45,Correct,91,1,-0.86124399,2.366102272,0
92,1033,Baseline,1,92,High Prob,4,3,2,0.4026282,2,0.45,Correct,92,1,-0.909741724,2.483680974,0
93,1033,Baseline,1,93,High Prob,3,2,4,0.4133371,4,0.5,Correct,93,1,-0.883491796,2.419332792,0
94,1033,Baseline,1,94,High Prob,2,4,1,0.4000211,1,0.3,Correct,94,1,-0.916237983,2.499868132,0
95,1033,Baseline,1,95,High Prob,4,1,3,0.3807586,3,0.45,Correct,95,1,-0.9655897,2.626335951,0
96,1033,Baseline,1,96,High Prob,1,3,4,0.4408059,4,0.5,Correct,96,1,-0.819150636,2.268572177,0
97,1033,Baseline,1,97,High Prob,3,4,2,0.424208,2,0.35,Correct,97,1,-0.857531378,2.357334138,0
98,1033,Baseline,1,98,Low Prob,4,2,1,0.2542588,1,0.6,Correct,98,1,-1.369402633,3.933000549,0
99,1033,Baseline,1,99,High Prob,2,1,4,0.3809794,4,0.55,Correct,99,1,-0.965009974,2.624813835,0
100,1033,Baseline,1,100,High Prob,1,4,3,0.4009911,3,0.3,Correct,100,1,-0.913816046,2.493820935,0
101,1033,Baseline,1,101,High Prob,4,3,2,0.5837419,2,0.2,Correct,101,1,-0.538296346,1.713085869,0
102,1033,Baseline,1,102,High Prob,3,2,4,0.3831761,4,0.4,Correct,102,1,-0.959260604,2.60976611,0
103,1033,Baseline,1,103,High Prob,2,4,1,0.3045841,1,0.35,Correct,103,1,-1.188808039,3.283165471,0
104,1033,Baseline,1,104,High Prob,4,1,3,0.405225,3,0.35,Correct,104,1,-0.903312811,2.467764822,0
105,1033,Baseline,1,105,High Prob,1,3,4,0.3659746,4,0.55,Correct,105,1,-1.005191347,2.732430065,0
106,1033,Baseline,1,106,High Prob,3,4,2,0.4800063,2,0.35,Correct,106,1,-0.73395605,2.08330599,0
107,1033,Baseline,1,107,High Prob,4,2,3,0.3940611,3,0.45,Correct,107,1,-0.931249306,2.537677533,0
108,1033,Baseline,1,108,High Prob,2,3,1,0.5173955,1,0.5,Correct,108,1,-0.658947707,1.932757436,0
109,1033,Baseline,1,109,Low Prob,3,1,4,0.4614561,4,0.45,Correct,109,1,-0.773368354,2.167053377,0
110,1033,Baseline,1,110,High Prob,1,4,3,0.4342519,3,0.2,Correct,110,1,-0.834130499,2.30281088,0
111,1033,Baseline,1,111,High Prob,4,3,2,0.4555946,2,0.2,Correct,111,1,-0.7861519,2.194933829,0
112,1033,Baseline,1,112,High Prob,3,2,4,0.3783112,4,0.25,Correct,112,1,-0.972038142,2.643326447,0
113,1033,Baseline,1,113,High Prob,2,4,1,0.3123702,2,0.45,Wrong,113,0,-1.163566256,3.201329704,1
114,1033,Baseline,1,114,High Prob,4,1,3,0.4430806,3,0.4,Correct,114,1,-0.814003584,2.256925715,0
115,1033,Baseline,1,115,High Prob,1,3,4,0.3824056,4,0.25,Correct,115,1,-0.961273454,2.615024466,0
116,1033,Baseline,1,116,High Prob,3,4,2,0.2778014,1,0.6,Wrong,116,0,-1.280848809,3.599693882,1
117,1033,Baseline,1,117,High Prob,4,2,3,0.3758962,3,0.45,Correct,117,1,-0.978442238,2.660308883,0
118,1033,Baseline,1,118,High Prob,2,3,1,0.4459321,1,0.25,Correct,118,1,-0.807588581,2.242493868,0
119,1033,Baseline,1,119,High Prob,3,1,2,0.4373757,2,0.55,Correct,119,1,-0.826962728,2.286363874,0
120,1033,Baseline,1,120,High Prob,1,2,1,0.3187185,1,0.5,Correct,120,1,-1.143447011,3.137564967,0
121,1033,Baseline,2,1,High Prob,2,3,1,0.3456393,1,0.2,Correct,121,1,-1.062359533,2.893189519,0
122,1033,Baseline,2,2,High Prob,3,1,2,0.2809994,2,0.45,Correct,122,1,-1.269402745,3.55872646,0
123,1033,Baseline,2,3,High Prob,1,2,1,0.2490615,1,0.5,Correct,123,1,-1.390055425,4.015072582,0
124,1033,Baseline,2,4,High Prob,2,1,4,0.371755,4,0.25,Correct,124,1,-0.989520244,2.689943646,0
125,1033,Baseline,2,5,High Prob,1,4,3,0.3158369,3,0.6,Correct,125,1,-1.152529338,3.166191158,0
126,1033,Baseline,2,6,High Prob,4,3,2,0.4918807,2,0.45,Correct,126,1,-0.709519072,2.03301329,0
127,1033,Baseline,2,7,Low Prob,3,2,3,0.5252497,3,0.25,Correct,127,1,-0.64388151,1.903856394,0
128,1033,Baseline,2,8,High Prob,2,3,1,0.319331,1,0.6,Correct,128,1,-1.141527097,3.13154689,0
129,1033,Baseline,2,9,Low Prob,3,1,4,0.2873865,4,0.45,Correct,129,1,-1.246927279,3.479634569,0
130,1033,Baseline,2,10,High Prob,1,4,3,0.3947363,3,0.2,Correct,130,1,-0.929537332,2.533336812,0
131,1033,Baseline,2,11,High Prob,4,3,2,0.4981396,2,0.6,Correct,131,1,-0.69687492,2.007469392,0
132,1033,Baseline,2,12,High Prob,3,2,4,0.3668998,4,0.35,Correct,132,1,-1.002666493,2.72553978,0
133,1033,Baseline,2,13,High Prob,2,4,1,0.4489629,1,0.35,Correct,133,1,-0.800815023,2.227355534,0
134,1033,Baseline,2,14,High Prob,4,1,3,0.5235808,3,0.45,Correct,134,1,-0.647063915,1.909924886,0
135,1033,Baseline,2,15,High Prob,1,3,4,0.4156949,4,0.55,Correct,135,1,-0.877803701,2.405610461,0
136,1033,Baseline,2,16,High Prob,3,4,2,0.4177396,2,0.3,Correct,136,1,-0.872897007,2.393835777,0
137,1033,Baseline,2,17,High Prob,4,2,3,0.5058039,3,0.55,Correct,137,1,-0.681606234,1.97705079,0
138,1033,Baseline,2,18,Low Prob,2,3,4,0.3525387,4,0.5,Correct,138,1,-1.042594876,2.836568014,0
139,1033,Baseline,2,19,High Prob,3,4,2,0.5112827,2,0.45,Correct,139,1,-0.670832613,1.955865121,0
140,1033,Baseline,2,20,High Prob,4,2,3,0.4859832,3,0.5,Correct,140,1,-0.721581224,2.057684299,0
141,1033,Baseline,2,21,High Prob,2,3,1,0.5113688,1,0.45,Correct,141,1,-0.670664227,1.955535809,0
142,1033,Baseline,2,22,High Prob,3,1,2,0.482111,2,0.6,Correct,142,1,-0.729580901,2.074211126,0
143,1033,Baseline,2,23,High Prob,1,2,1,0.4315026,1,0.35,Correct,143,1,-0.840481743,2.317483139,0
144,1033,Baseline,2,24,High Prob,2,1,4,0.4568838,4,0.5,Correct,144,1,-0.783326187,2.188740332,0
145,1033,Baseline,2,25,High Prob,1,4,3,0.3256168,3,0.4,Correct,145,1,-1.122034049,3.071094612,0
146,1033,Baseline,2,26,High Prob,4,3,2,0.3836626,2,0.6,Correct,146,1,-0.957991758,2.606456819,0
147,1033,Baseline,2,27,Low Prob,3,2,3,0.4290466,3,0.45,Correct,147,1,-0.846189741,2.330749154,0
148,1033,Baseline,2,28,High Prob,2,3,1,0.3271074,1,0.5,Correct,148,1,-1.117466722,3.057099901,0
149,1033,Baseline,2,29,High Prob,3,1,2,0.4611531,2,0.3,Correct,149,1,-0.774025187,2.168477237,0
150,1033,Baseline,2,30,High Prob,1,2,1,0.4638149,1,0.25,Correct,150,1,-0.768269729,2.156032503,0
151,1033,Baseline,2,31,High Prob,2,1,4,0.498534,4,0.25,Correct,151,1,-0.696083487,2.005881244,0
152,1033,Baseline,2,32,Low Prob,1,4,2,0.3532948,2,0.3,Correct,152,1,-1.040452443,2.830497364,0
153,1033,Baseline,2,33,High Prob,4,2,3,0.3200102,3,0.45,Correct,153,1,-1.139402409,3.124900394,0
154,1033,Baseline,2,34,High Prob,2,3,1,0.3680633,1,0.45,Correct,154,1,-0.999500345,2.716923964,0
155,1033,Baseline,2,35,High Prob,3,1,2,0.3441285,2,0.6,Correct,155,1,-1.066740145,2.905891259,0
156,1033,Baseline,2,36,High Prob,1,2,1,0.4014979,1,0.2,Correct,156,1,-0.912552976,2.490673052,0
157,1033,Baseline,2,37,High Prob,2,1,4,0.4322133,4,0.4,Correct,157,1,-0.838836063,2.313672439,0
158,1033,Baseline,2,38,High Prob,1,4,3,0.4296054,3,0.4,Correct,158,1,-0.844888166,2.327717482,0
159,1033,Baseline,2,39,Low Prob,4,3,1,0.4196329,1,0.2,Correct,159,1,-0.868374998,2.383035267,0
160,1033,Baseline,2,40,High Prob,3,1,2,0.281706,2,0.6,Correct,160,1,-1.266891305,3.549800146,0
161,1033,Baseline,2,41,High Prob,1,2,1,0.3890716,1,0.2,Correct,161,1,-0.943991891,2.570221008,0
162,1033,Baseline,2,42,Low Prob,2,1,3,0.5404455,3,0.2,Correct,162,1,-0.61536148,1.850325333,0
163,1033,Baseline,2,43,High Prob,1,3,4,0.3078438,4,0.45,Correct,163,1,-1.178162768,3.24840065,0
164,1033,Baseline,2,44,High Prob,3,4,2,0.3905503,2,0.4,Correct,164,1,-0.940198509,2.560489648,0
165,1033,Baseline,2,45,Low Prob,4,2,1,0.2559661,1,0.55,Correct,165,1,-1.362710265,3.906767341,0
166,1033,Baseline,2,46,High Prob,2,1,4,0.4446446,4,0.2,Correct,166,1,-0.810479968,2.248987169,0
167,1033,Baseline,2,47,Low Prob,1,4,2,0.2780358,2,0.5,Correct,167,1,-1.280005397,3.596659135,0
168,1033,Baseline,2,48,Low Prob,4,2,1,0.4340552,1,0.2,Correct,168,1,-0.834583564,2.303854441,0
169,1033,Baseline,2,49,High Prob,2,1,4,0.5014187,4,0.25,Correct,169,1,-0.690313798,1.994341256,0
170,1033,Baseline,2,50,High Prob,1,4,3,0.3641731,3,0.5,Correct,170,1,-1.010125975,2.745946914,0
171,1033,Baseline,2,51,High Prob,4,3,2,0.4328618,2,0.3,Correct,171,1,-0.837336771,2.310206167,0
172,1033,Baseline,2,52,Low Prob,3,2,3,0.4322742,3,0.35,Correct,172,1,-0.83869517,2.313346482,0
173,1033,Baseline,2,53,High Prob,2,3,1,0.4356252,1,0.25,Correct,173,1,-0.830973038,2.295551313,0
174,1033,Baseline,2,54,High Prob,3,1,2,0.4510347,2,0.35,Correct,174,1,-0.796211002,2.217124314,0
175,1033,Baseline,2,55,Low Prob,1,2,4,0.3977422,4,0.45,Correct,175,1,-0.921951222,2.514191353,0
176,1033,Baseline,2,56,High Prob,2,4,1,0.6051422,1,0.4,Correct,176,1,-0.502291807,1.652504155,0
177,1033,Baseline,2,57,High Prob,4,1,3,0.4838892,3,0.4,Correct,177,1,-0.725899324,2.066588798,0
178,1033,Baseline,2,58,Low Prob,1,3,2,0.3192626,2,0.4,Correct,178,1,-1.141741317,3.132217804,0
179,1033,Baseline,2,59,High Prob,3,2,4,0.4572837,4,0.2,Correct,179,1,-0.782451293,2.186826252,0
180,1033,Baseline,2,60,Low Prob,2,4,3,0.4940294,3,0.6,Correct,180,1,-0.705160249,2.024171031,0
181,1033,Baseline,2,61,High Prob,4,3,2,0.3974085,2,0.3,Correct,181,1,-0.92279056,2.516302495,0
182,1033,Baseline,2,62,High Prob,3,2,4,0.5307752,4,0.25,Correct,182,1,-0.6334167,1.884036782,0
183,1033,Baseline,2,63,Low Prob,2,4,3,0.3128626,3,0.5,Correct,183,1,-1.161991162,3.196291279,0
184,1033,Baseline,2,64,High Prob,4,3,2,0.673546,2,0.25,Correct,184,1,-0.395198986,1.484679591,0
185,1033,Baseline,2,65,Low Prob,3,2,3,0.4236241,4,0.35,Wrong,185,0,-0.858908774,2.360583357,0
186,1033,Baseline,2,66,High Prob,2,3,1,0.5136866,1,0.5,Correct,186,1,-0.666141927,1.946712256,0
187,1033,Baseline,2,67,High Prob,3,1,2,0.3244262,2,0.6,Correct,187,1,-1.125697196,3.082365111,0
188,1033,Baseline,2,68,High Prob,1,2,1,0.4004741,1,0.55,Correct,188,1,-0.915106184,2.497040383,0
189,1033,Baseline,2,69,Low Prob,2,1,3,0.4391523,3,0.6,Correct,189,1,-0.822909001,2.277114341,0
190,1033,Baseline,2,70,High Prob,1,3,4,0.4125622,4,0.6,Correct,190,1,-0.885368297,2.423876933,0
191,1033,Baseline,2,71,High Prob,3,4,2,0.3253317,2,0.55,Correct,191,1,-1.122910002,3.073785924,0
192,1033,Baseline,2,72,High Prob,4,2,3,0.4953681,3,0.2,Correct,192,1,-0.702454156,2.018700841,0
193,1033,Baseline,2,73,High Prob,2,3,1,0.4827443,1,0.2,Correct,193,1,-0.728268165,2.071490021,0
194,1033,Baseline,2,74,Low Prob,3,1,4,0.5481381,4,0.25,Correct,194,1,-0.601228016,1.824357767,0
195,1033,Baseline,2,75,High Prob,1,4,3,0.4029071,3,0.25,Correct,195,1,-0.909049265,2.481961723,0
196,1033,Baseline,2,76,High Prob,4,3,2,0.4375556,2,0.3,Correct,196,1,-0.826551496,2.285423841,0
197,1033,Baseline,2,77,Low Prob,3,2,3,0.4229911,3,0.3,Correct,197,1,-0.86040414,2.364115935,0
198,1033,Baseline,2,78,High Prob,2,3,1,0.2889881,1,0.5,Correct,198,1,-1.241369768,3.460350097,0
199,1033,Baseline,2,79,Low Prob,3,1,4,0.3383727,4,0.45,Correct,199,1,-1.083607328,2.955321159,0
200,1033,Baseline,2,80,High Prob,1,4,3,0.4757406,3,0.2,Correct,200,1,-0.742882531,2.10198583,0
201,1033,Baseline,2,81,High Prob,4,3,2,0.4858033,2,0.45,Correct,201,1,-0.72195147,2.058446289,0
202,1033,Baseline,2,82,High Prob,3,2,4,0.5072019,4,0.55,Correct,202,1,-0.67884613,1.971601447,0
203,1033,Baseline,2,83,High Prob,2,4,1,0.3039387,1,0.55,Correct,203,1,-1.190929243,3.290137123,0
204,1033,Baseline,2,84,High Prob,4,1,3,0.3706405,3,0.4,Correct,204,1,-0.992522689,2.69803219,0
205,1033,Baseline,2,85,High Prob,1,3,4,0.504682,4,0.25,Correct,205,1,-0.683826751,1.981445742,0
206,1033,Baseline,2,86,High Prob,3,4,2,0.4334164,2,0.45,Correct,206,1,-0.83605635,2.307250026,0
207,1033,Baseline,2,87,High Prob,4,2,3,0.4347822,3,0.3,Correct,207,1,-0.832910063,2.300002162,0
208,1033,Baseline,2,88,High Prob,2,3,1,0.5181381,1,0.25,Correct,208,1,-0.65751347,1.929987391,0
209,1033,Baseline,2,89,High Prob,3,1,2,0.4681806,2,0.3,Correct,209,1,-0.75890116,2.135927888,0
210,1033,Baseline,2,90,High Prob,1,2,1,0.4862937,1,0.25,Correct,210,1,-0.720942517,2.056370461,0
211,1033,Baseline,2,91,High Prob,2,1,4,0.4256715,4,0.6,Correct,211,1,-0.854087357,2.349229394,0
212,1033,Baseline,2,92,Low Prob,1,4,2,0.3977323,2,0.25,Correct,212,1,-0.921976113,2.514253934,0
213,1033,Baseline,2,93,High Prob,4,2,3,0.571102,3,0.45,Correct,213,1,-0.560187451,1.751000697,0
214,1033,Baseline,2,94,High Prob,2,3,1,0.3211623,1,0.45,Correct,214,1,-1.135808676,3.113690492,0
215,1033,Baseline,2,95,Low Prob,3,1,4,0.4912234,4,0.6,Correct,215,1,-0.710856265,2.03573364,0
216,1033,Baseline,2,96,Low Prob,1,4,2,0.3966114,2,0.25,Correct,216,1,-0.924798319,2.521359699,0
217,1033,Baseline,2,97,High Prob,4,2,3,0.3819852,3,0.35,Correct,217,1,-0.962373415,2.617902474,0
218,1033,Baseline,2,98,High Prob,2,3,1,0.2873674,1,0.35,Correct,218,1,-1.246993743,3.479865844,0
219,1033,Baseline,2,99,Low Prob,3,1,4,0.342743,4,0.3,Correct,219,1,-1.070774384,2.917637997,0
220,1033,Baseline,2,100,High Prob,1,4,3,0.4421249,3,0.35,Correct,220,1,-0.816162858,2.2618043,0
221,1033,Baseline,2,101,High Prob,4,3,2,0.4815235,2,0.55,Correct,221,1,-0.730800243,2.076741841,0
222,1033,Baseline,2,102,High Prob,3,2,4,0.4089173,4,0.5,Correct,222,1,-0.894242344,2.445482253,0
223,1033,Baseline,2,103,High Prob,2,4,1,0.293641,1,0.45,Correct,223,1,-1.225397346,3.405518984,0
224,1033,Baseline,2,104,High Prob,4,1,3,0.3250112,3,0.5,Correct,224,1,-1.123895636,3.076817045,0
225,1033,Baseline,2,105,High Prob,1,3,4,0.3910648,4,0.4,Correct,225,1,-0.938882004,2.557120968,0
226,1033,Baseline,2,106,High Prob,3,4,2,0.4404433,2,0.35,Correct,226,1,-0.819973559,2.270439805,0
227,1033,Baseline,2,107,High Prob,4,2,3,0.4078351,3,0.35,Correct,227,1,-0.896892353,2.451971397,0
228,1033,Baseline,2,108,High Prob,2,3,1,0.3185586,1,0.6,Correct,228,1,-1.143948833,3.139139863,0
229,1033,Baseline,2,109,High Prob,3,1,2,0.5345976,2,0.25,Correct,229,1,-0.626240965,1.870565824,0
230,1033,Baseline,2,110,High Prob,1,2,1,0.3739829,1,0.25,Correct,230,1,-0.983545205,2.673919048,0
231,1033,Baseline,2,111,Low Prob,2,1,3,0.5420673,3,0.2,Correct,231,1,-0.612365116,1.844789383,0
232,1033,Baseline,2,112,High Prob,1,3,4,0.3674486,4,0.6,Correct,232,1,-1.001171834,2.721469071,0
233,1033,Baseline,2,113,High Prob,3,4,2,0.4694315,2,0.25,Correct,233,1,-0.756232891,2.130236254,0
234,1033,Baseline,2,114,High Prob,4,2,3,0.4074864,4,0.25,Wrong,234,0,-0.897747721,2.454069633,1
235,1033,Baseline,2,115,High Prob,2,3,1,0.4822345,1,0.5,Correct,235,1,-0.729324769,2.073679921,0
236,1033,Baseline,2,116,High Prob,3,1,2,0.4056864,2,0.6,Correct,236,1,-0.902174832,2.464958155,0
237,1033,Baseline,2,117,Low Prob,1,2,4,0.560375,4,0.5,Correct,237,1,-0.579149077,1.784519295,0
238,1033,Baseline,2,118,High Prob,2,4,1,0.565098,1,0.5,Correct,238,1,-0.570756112,1.769604564,0
239,1033,Baseline,2,119,High Prob,4,1,3,0.3271805,3,0.55,Correct,239,1,-1.117243273,3.056416871,0
240,1033,Baseline,2,120,High Prob,1,3,4,0.4212088,4,0.5,Correct,240,1,-0.864626606,2.374119439,0
241,1033,Baseline,3,1,Low Prob,2,3,4,0.3040522,4,0.55,Correct,241,1,-1.190555882,3.288908944,0
242,1033,Baseline,3,2,High Prob,3,4,2,0.4547408,2,0.3,Correct,242,1,-0.788027693,2.199054934,0
243,1033,Baseline,3,3,High Prob,4,2,3,0.4254247,3,0.25,Correct,243,1,-0.854667315,2.350592243,0
244,1033,Baseline,3,4,Low Prob,2,3,4,0.2994435,4,0.3,Correct,244,1,-1.205829527,3.339528158,0
245,1033,Baseline,3,5,Low Prob,3,4,1,0.3421399,1,0.2,Correct,245,1,-1.072535561,2.922781003,0
246,1033,Baseline,3,6,High Prob,4,1,3,0.2655293,3,0.35,Correct,246,1,-1.326030087,3.766062728,0
247,1033,Baseline,3,7,High Prob,1,3,4,0.2996226,4,0.45,Correct,247,1,-1.205231596,3.337531949,0
248,1033,Baseline,3,8,High Prob,3,4,2,0.2623488,2,0.6,Correct,248,1,-1.338080363,3.81171936,0
249,1033,Baseline,3,9,High Prob,4,2,3,0.3630542,3,0.4,Correct,249,1,-1.013203145,2.754409672,0
250,1033,Baseline,3,10,High Prob,2,3,1,0.2977719,1,0.45,Correct,250,1,-1.211427522,3.358275244,0
251,1033,Baseline,3,11,High Prob,3,1,2,0.4491256,2,0.3,Correct,251,1,-0.800452698,2.226548654,0
252,1033,Baseline,3,12,High Prob,1,2,1,0.4278709,1,0.45,Correct,252,1,-0.848933764,2.337153567,0
253,1033,Baseline,3,13,High Prob,2,1,4,0.3619161,4,0.4,Correct,253,1,-1.016342862,2.763071331,0
254,1033,Baseline,3,14,High Prob,1,4,3,0.2906935,3,0.6,Correct,254,1,-1.235485831,3.440049399,0
255,1033,Baseline,3,15,High Prob,4,3,2,0.4200306,2,0.45,Correct,255,1,-0.867427713,2.380778924,0
256,1033,Baseline,3,16,High Prob,3,2,4,0.4740969,4,0.2,Correct,256,1,-0.746343548,2.109273442,0
257,1033,Baseline,3,17,High Prob,2,4,1,0.3201214,1,0.55,Correct,257,1,-1.13905498,3.123814903,0
258,1033,Baseline,3,18,High Prob,4,1,3,0.3841882,3,0.45,Correct,258,1,-0.956622742,2.602890979,0
259,1033,Baseline,3,19,Low Prob,1,3,2,0.4475547,2,0.4,Correct,259,1,-0.803956514,2.234363755,0
260,1033,Baseline,3,20,High Prob,3,2,4,0.4369398,4,0.2,Correct,260,1,-0.827959851,2.288644797,0
261,1033,Baseline,3,21,High Prob,2,4,1,0.63232,1,0.25,Correct,261,1,-0.458359684,1.581477733,0
262,1033,Baseline,3,22,High Prob,4,1,3,0.3577448,3,0.2,Correct,262,1,-1.027935396,2.795288709,0
263,1033,Baseline,3,23,High Prob,1,3,4,0.3624104,4,0.3,Correct,263,1,-1.014978008,2.759302713,0
264,1033,Baseline,3,24,High Prob,3,4,2,0.42313,2,0.5,Correct,264,1,-0.860075819,2.363339872,0
265,1033,Baseline,3,25,High Prob,4,2,3,0.6972041,3,0.3,Correct,265,1,-0.360677085,1.434300229,0
266,1033,Baseline,3,26,High Prob,2,3,1,0.3085841,1,0.6,Correct,266,1,-1.175760863,3.240607666,0
267,1033,Baseline,3,27,High Prob,3,1,2,0.5592899,2,0.2,Correct,267,1,-0.581087336,1.78798151,0
268,1033,Baseline,3,28,High Prob,1,2,1,0.4800248,1,0.6,Correct,268,1,-0.73391751,2.0832257,0
269,1033,Baseline,3,29,High Prob,2,1,4,0.3100958,3,0.55,Wrong,269,0,-1.170873997,3.224809881,1
270,1033,Baseline,3,30,High Prob,1,4,3,0.4328214,3,0.6,Correct,270,1,-0.837430107,2.310421804,0
271,1033,Baseline,3,31,High Prob,4,3,2,0.5122038,2,0.35,Correct,271,1,-0.669032686,1.952347874,0
272,1033,Baseline,3,32,High Prob,3,2,4,0.3249487,4,0.55,Correct,272,1,-1.124087955,3.077408834,0
273,1033,Baseline,3,33,High Prob,2,4,1,0.4949729,1,0.2,Correct,273,1,-0.703252265,2.020312627,0
274,1033,Baseline,3,34,High Prob,4,1,3,0.2803598,3,0.45,Correct,274,1,-1.271681501,3.566845175,0
275,1033,Baseline,3,35,High Prob,1,3,4,0.3124161,4,0.5,Correct,275,1,-1.163419326,3.200859367,0
276,1033,Baseline,3,36,High Prob,3,4,2,0.2431477,2,0.6,Correct,276,1,-1.414086201,4.112726544,0
277,1033,Baseline,3,37,High Prob,4,2,3,0.4445007,3,0.3,Correct,277,1,-0.810803649,2.249715242,0
278,1033,Baseline,3,38,Low Prob,2,3,4,0.4078988,4,0.45,Correct,278,1,-0.896736175,2.451588482,0
279,1033,Baseline,3,39,High Prob,3,4,2,0.3026282,2,0.6,Correct,279,1,-1.19525029,3.30438472,0
280,1033,Baseline,3,40,High Prob,4,2,3,0.4473258,3,0.45,Correct,280,1,-0.804468091,2.235507096,0
281,1033,Baseline,3,41,High Prob,2,3,1,0.5647465,1,0.6,Correct,281,1,-0.571378321,1.770705972,0
282,1033,Baseline,3,42,High Prob,3,1,2,0.3428186,3,0.55,Wrong,282,0,-1.070553835,2.916994585,1
283,1033,Baseline,3,43,Low Prob,1,2,4,0.5501985,4,0.45,Correct,283,1,-0.597476157,1.817525857,0
284,1033,Baseline,3,44,High Prob,2,4,1,0.2949531,1,0.6,Correct,284,1,-1.220938918,3.39036952,0
285,1033,Baseline,3,45,High Prob,4,1,3,0.460317,3,0.35,Correct,285,1,-0.775839896,2.172415966,0
286,1033,Baseline,3,46,High Prob,1,3,4,0.4690463,4,0.5,Correct,286,1,-0.757053795,2.131985691,0
287,1033,Baseline,3,47,Low Prob,3,4,1,0.461119,1,0.5,Correct,287,1,-0.774099135,2.168637597,0
288,1033,Baseline,3,48,High Prob,4,1,3,0.4618203,3,0.3,Correct,288,1,-0.772579425,2.165344399,0
289,1033,Baseline,3,49,High Prob,1,3,4,0.460503,4,0.35,Correct,289,1,-0.775435909,2.171538513,0
290,1033,Baseline,3,50,High Prob,3,4,2,0.3392359,2,0.55,Correct,290,1,-1.081059543,2.94780122,0
291,1033,Baseline,3,51,High Prob,4,2,3,0.4466915,3,0.55,Correct,291,1,-0.805887079,2.238681506,0
292,1033,Baseline,3,52,High Prob,2,3,1,0.4840165,1,0.6,Correct,292,1,-0.725636282,2.066045269,0
293,1033,Baseline,3,53,High Prob,3,1,2,0.567464,2,0.6,Correct,293,1,-0.566577968,1.762226326,0
294,1033,Baseline,3,54,High Prob,1,2,1,0.5655062,1,0.25,Correct,294,1,-0.57003402,1.768327208,0
295,1033,Baseline,3,55,High Prob,2,1,4,0.661583,4,0.6,Correct,295,1,-0.413119831,1.511526143,0
296,1033,Baseline,3,56,High Prob,1,4,3,0.3323227,3,0.35,Correct,296,1,-1.101648794,3.009123361,0
297,1033,Baseline,3,57,High Prob,4,3,2,0.5296992,2,0.3,Correct,297,1,-0.635445981,1.887863905,0
298,1033,Baseline,3,58,High Prob,3,2,4,0.5157385,4,0.2,Correct,298,1,-0.662155425,1.938967132,0
299,1033,Baseline,3,59,High Prob,2,4,1,0.4517941,1,0.25,Correct,299,1,-0.794528734,2.213397652,0
300,1033,Baseline,3,60,Low Prob,4,1,2,0.4165047,2,0.4,Correct,300,1,-0.875857533,2.400933291,0
301,1033,Baseline,3,61,High Prob,1,2,1,0.396563,1,0.45,Correct,301,1,-0.92492036,2.521667427,0
302,1033,Baseline,3,62,High Prob,2,1,4,0.5659745,4,0.55,Correct,302,1,-0.569206255,1.766864055,0
303,1033,Baseline,3,63,High Prob,1,4,3,0.3260377,3,0.6,Correct,303,1,-1.12074226,3.067129967,0
304,1033,Baseline,3,64,High Prob,4,3,2,0.3200949,2,0.6,Correct,304,1,-1.139137765,3.124073517,0
305,1033,Baseline,3,65,High Prob,3,2,4,0.5221181,4,0.2,Correct,305,1,-0.649861471,1.91527549,0
306,1033,Baseline,3,66,High Prob,2,4,1,0.3321389,1,0.2,Correct,306,1,-1.102202024,3.010788559,0
307,1033,Baseline,3,67,High Prob,4,1,3,0.357537,3,0.6,Correct,307,1,-1.028516426,2.796913326,0
308,1033,Baseline,3,68,High Prob,1,3,4,0.4342691,4,0.5,Correct,308,1,-0.834090891,2.302719673,0
309,1033,Baseline,3,69,High Prob,3,4,2,0.5016296,2,0.25,Correct,309,1,-0.68989328,1.993502776,0
310,1033,Baseline,3,70,High Prob,4,2,3,0.8104058,3,0.55,Correct,310,1,-0.210220169,1.233949708,0
311,1033,Baseline,3,71,Low Prob,2,3,4,0.3211687,4,0.6,Correct,311,1,-1.135788749,3.113628445,0
312,1033,Baseline,3,72,High Prob,3,4,2,0.4992137,2,0.4,Correct,312,1,-0.694721018,2.003150154,0
313,1033,Baseline,3,73,High Prob,4,2,3,0.5139269,3,0.3,Correct,313,1,-0.665674242,1.94580202,0
314,1033,Baseline,3,74,High Prob,2,3,1,0.3886412,1,0.2,Correct,314,1,-0.945098726,2.573067395,0
315,1033,Baseline,3,75,High Prob,3,1,2,0.5020228,1,0.35,Wrong,315,0,-0.689109742,1.991941402,1
316,1033,Baseline,3,76,High Prob,1,2,1,0.5647343,1,0.3,Correct,316,1,-0.571399924,1.770744224,0
317,1033,Baseline,3,77,High Prob,2,1,4,0.532787,4,0.2,Correct,317,1,-0.629633559,1.876922673,0
318,1033,Baseline,3,78,High Prob,1,4,3,0.3681604,3,0.35,Correct,318,1,-0.999236566,2.716207392,0
319,1033,Baseline,3,79,High Prob,4,3,2,0.3761989,2,0.6,Correct,319,1,-0.977637286,2.658168325,0
320,1033,Baseline,3,80,High Prob,3,2,4,0.3743452,4,0.45,Correct,320,1,-0.982576913,2.671331167,0
321,1033,Baseline,3,81,Low Prob,2,4,3,0.4923481,3,0.25,Correct,321,1,-0.708569292,2.031083292,0
322,1033,Baseline,3,82,Low Prob,4,3,1,0.4677239,1,0.5,Correct,322,1,-0.759877114,2.138013473,0
323,1033,Baseline,3,83,High Prob,3,1,2,0.4857673,2,0.25,Correct,323,1,-0.722025576,2.058598839,0
324,1033,Baseline,3,84,High Prob,1,2,1,0.3971599,1,0.5,Correct,324,1,-0.923416309,2.51787756,0
325,1033,Baseline,3,85,High Prob,2,1,4,0.5325703,4,0.2,Correct,325,1,-0.630040371,1.877686382,0
326,1033,Baseline,3,86,Low Prob,1,4,2,0.3519359,2,0.35,Correct,326,1,-1.044306222,2.841426521,0
327,1033,Baseline,3,87,High Prob,4,2,3,0.4166408,3,0.4,Correct,327,1,-0.875530819,2.400149001,0
328,1033,Baseline,3,88,High Prob,2,3,1,0.3327121,1,0.45,Correct,328,1,-1.100477728,3.00560154,0
329,1033,Baseline,3,89,High Prob,3,1,2,0.5041104,2,0.55,Correct,329,1,-0.684959987,1.983692461,0
330,1033,Baseline,3,90,High Prob,1,2,1,0.3828359,1,0.5,Correct,330,1,-0.960148841,2.61208523,0
331,1033,Baseline,3,91,High Prob,2,1,4,0.5142083,4,0.3,Correct,331,1,-0.665126843,1.944737181,0
332,1033,Baseline,3,92,High Prob,1,4,3,0.3429611,3,0.55,Correct,332,1,-1.070138249,2.915782577,0
333,1033,Baseline,3,93,High Prob,4,3,2,0.5122868,2,0.2,Correct,333,1,-0.668870655,1.952031557,0
334,1033,Baseline,3,94,High Prob,3,2,4,0.4490315,4,0.25,Correct,334,1,-0.800662238,2.227015254,0
335,1033,Baseline,3,95,High Prob,2,4,1,0.3717284,1,0.25,Correct,335,1,-0.989591799,2.690136132,0
336,1033,Baseline,3,96,High Prob,4,1,3,0.433785,3,0.45,Correct,336,1,-0.835206259,2.305289487,0
337,1033,Baseline,3,97,High Prob,1,3,4,0.6511663,4,0.5,Correct,337,1,-0.428990216,1.535706009,0
338,1033,Baseline,3,98,High Prob,3,4,2,0.4159207,2,0.4,Correct,338,1,-0.877260662,2.404304474,0
339,1033,Baseline,3,99,High Prob,4,2,3,0.5459605,3,0.3,Correct,339,1,-0.60520865,1.83163434,0
340,1033,Baseline,3,100,Low Prob,2,3,4,0.4753918,4,0.4,Correct,340,1,-0.743615973,2.103528079,0
341,1033,Baseline,3,101,Low Prob,3,4,1,0.40341,1,0.5,Correct,341,1,-0.907801864,2.478867653,0
342,1033,Baseline,3,102,High Prob,4,1,3,0.3760783,3,0.25,Correct,342,1,-0.977957913,2.659020741,0
343,1033,Baseline,3,103,Low Prob,1,3,2,0.5761443,2,0.6,Correct,343,1,-0.551397129,1.735676288,0
344,1033,Baseline,3,104,Low Prob,3,2,3,0.5121896,3,0.2,Correct,344,1,-0.66906041,1.952402001,0
345,1033,Baseline,3,105,High Prob,2,3,1,0.6389161,1,0.3,Correct,345,1,-0.447982132,1.565150729,0
346,1033,Baseline,3,106,High Prob,3,1,2,0.5343034,2,0.35,Correct,346,1,-0.626791437,1.871595801,0
347,1033,Baseline,3,107,High Prob,1,2,1,0.4137033,1,0.45,Correct,347,1,-0.882606229,2.417191258,0
348,1033,Baseline,3,108,High Prob,2,1,4,0.5324123,4,0.2,Correct,348,1,-0.63033709,1.878243609,0
349,1033,Baseline,3,109,High Prob,1,4,3,0.4399294,3,0.55,Correct,349,1,-0.821141019,2.273092001,0
350,1033,Baseline,3,110,High Prob,4,3,2,0.4392334,2,0.35,Correct,350,1,-0.822724344,2.276693894,0
351,1033,Baseline,3,111,High Prob,3,2,4,0.3506387,4,0.55,Correct,351,1,-1.04799893,2.851938477,0
352,1033,Baseline,3,112,Low Prob,2,4,3,0.4813665,3,0.35,Correct,352,1,-0.731126345,2.077419181,0
353,1033,Baseline,3,113,High Prob,4,3,2,0.5487317,3,0.6,Wrong,353,0,-0.600145664,1.822384236,1
354,1033,Baseline,3,114,Low Prob,3,2,3,0.7554716,3,0.25,Correct,354,1,-0.280413089,1.323676496,0
355,1033,Baseline,3,115,High Prob,2,3,1,0.634248,1,0.25,Correct,355,1,-0.455315234,1.576670325,0
356,1033,Baseline,3,116,High Prob,3,1,2,0.5036106,2,0.6,Correct,356,1,-0.685951929,1.985661144,0
357,1033,Baseline,3,117,Low Prob,1,2,4,0.432388,4,0.45,Correct,357,1,-0.838431946,2.312737634,0
358,1033,Baseline,3,118,Low Prob,2,4,3,0.3957247,3,0.45,Correct,358,1,-0.927036512,2.527009307,0
359,1033,Baseline,3,119,High Prob,4,3,2,0.3611205,2,0.45,Correct,359,1,-1.018543581,2.769158771,0
360,1033,Baseline,3,120,High Prob,3,2,4,0.5518176,4,0.45,Correct,360,1,-0.594537722,1.812193015,0
361,1033,Baseline,4,1,High Prob,2,3,1,0.4487409,1,0.6,Correct,361,1,-0.801309618,2.228457446,0
362,1033,Baseline,4,2,Low Prob,3,1,4,0.3854369,4,0.3,Correct,362,1,-0.953377783,2.594458393,0
363,1033,Baseline,4,3,High Prob,1,4,3,0.2888162,3,0.4,Correct,363,1,-1.241964779,3.462409657,0
364,1033,Baseline,4,4,High Prob,4,3,2,0.3781958,2,0.25,Correct,364,1,-0.972343228,2.644133013,0
365,1033,Baseline,4,5,High Prob,3,2,4,0.3162324,4,0.35,Correct,365,1,-1.151277893,3.162231321,0
366,1033,Baseline,4,6,High Prob,2,4,1,0.2782719,1,0.6,Correct,366,1,-1.279156586,3.593607547,0
367,1033,Baseline,4,7,High Prob,4,1,3,0.558335,3,0.3,Correct,367,1,-0.582796138,1.79103943,0
368,1033,Baseline,4,8,High Prob,1,3,4,0.3650803,4,0.25,Correct,368,1,-1.00763795,2.73912342,0
369,1033,Baseline,4,9,High Prob,3,4,2,0.4450879,2,0.4,Correct,369,1,-0.809483488,2.246747216,0
370,1033,Baseline,4,10,High Prob,4,2,3,0.4724864,3,0.45,Correct,370,1,-0.749746316,2.116463035,0
371,1033,Baseline,4,11,High Prob,2,3,1,0.3045404,1,0.5,Correct,371,1,-1.188951524,3.283636588,0
372,1033,Baseline,4,12,High Prob,3,1,2,0.6312476,2,0.3,Correct,372,1,-0.4600571,1.584164439,0
373,1033,Baseline,4,13,High Prob,1,2,1,0.421299,1,0.2,Correct,373,1,-0.864412484,2.373611141,0
374,1033,Baseline,4,14,Low Prob,2,1,3,0.5753757,3,0.5,Correct,374,1,-0.55273206,1.737994844,0
375,1033,Baseline,4,15,High Prob,1,3,4,0.2454257,4,0.45,Correct,375,1,-1.404761025,4.074552909,0
376,1033,Baseline,4,16,High Prob,3,4,2,0.5768672,2,0.25,Correct,376,1,-0.550143195,1.733501229,0
377,1033,Baseline,4,17,High Prob,4,2,3,0.5408939,3,0.3,Correct,377,1,-0.614532138,1.848791417,0
378,1033,Baseline,4,18,Low Prob,2,3,4,0.4042577,4,0.45,Correct,378,1,-0.905702733,2.473669642,0
379,1033,Baseline,4,19,High Prob,3,4,2,0.4489645,2,0.45,Correct,379,1,-0.800811459,2.227347597,0
380,1033,Baseline,4,20,High Prob,4,2,3,0.4676774,3,0.25,Correct,380,1,-0.759976537,2.138226051,0
381,1033,Baseline,4,21,High Prob,2,3,1,0.3277467,1,0.6,Correct,381,1,-1.115514225,3.051136747,0
382,1033,Baseline,4,22,High Prob,3,1,2,0.621807,2,0.3,Correct,382,1,-0.475125524,1.608216054,0
383,1033,Baseline,4,23,High Prob,1,2,1,0.5018529,1,0.35,Correct,383,1,-0.68944823,1.992615764,0
384,1033,Baseline,4,24,High Prob,2,1,4,0.4606084,4,0.5,Correct,384,1,-0.775207055,2.171041605,0
385,1033,Baseline,4,25,High Prob,1,4,3,0.4012975,3,0.2,Correct,385,1,-0.913052231,2.491916845,0
386,1033,Baseline,4,26,High Prob,4,3,2,0.4780407,2,0.45,Correct,386,1,-0.738059404,2.091872094,0
387,1033,Baseline,4,27,High Prob,3,2,4,0.4820587,4,0.2,Correct,387,1,-0.729689388,2.074436163,0
388,1033,Baseline,4,28,High Prob,2,4,1,0.3815022,1,0.4,Correct,388,1,-0.963638662,2.621216863,0
389,1033,Baseline,4,29,High Prob,4,1,3,0.4587915,3,0.45,Correct,389,1,-0.77915942,2.179639335,0
390,1033,Baseline,4,30,High Prob,1,3,4,0.421565,4,0.45,Correct,390,1,-0.863781302,2.372113434,0
391,1033,Baseline,4,31,High Prob,3,4,2,0.3637073,2,0.6,Correct,391,1,-1.011405856,2.749463648,0
392,1033,Baseline,4,32,High Prob,4,2,3,0.4523831,3,0.6,Correct,392,1,-0.793225892,2.210515822,0
393,1033,Baseline,4,33,High Prob,2,3,1,0.3970717,1,0.5,Correct,393,1,-0.92363841,2.518436847,0
394,1033,Baseline,4,34,High Prob,3,1,2,0.4084825,2,0.5,Correct,394,1,-0.895306205,2.448085291,0
395,1033,Baseline,4,35,High Prob,1,2,1,0.4871896,1,0.4,Correct,395,1,-0.719101909,2.052588972,0
396,1033,Baseline,4,36,High Prob,2,1,4,0.4845855,4,0.35,Correct,396,1,-0.724461393,2.06361932,0
397,1033,Baseline,4,37,High Prob,1,4,3,0.3539615,3,0.35,Correct,397,1,-1.038567129,2.825166014,0
398,1033,Baseline,4,38,Low Prob,4,3,1,0.30668,1,0.4,Correct,398,1,-1.18195042,3.260727794,0
399,1033,Baseline,4,39,High Prob,3,1,2,0.3973703,2,0.2,Correct,399,1,-0.922886687,2.516544392,0
400,1033,Baseline,4,40,High Prob,1,2,1,0.5327103,1,0.2,Correct,400,1,-0.62977753,1.877192913,0
401,1033,Baseline,4,41,High Prob,2,1,4,0.3901737,4,0.6,Correct,401,1,-0.941163254,2.562961061,0
402,1033,Baseline,4,42,High Prob,1,4,3,0.2735205,3,0.5,Correct,402,1,-1.296378706,3.656033094,0
403,1033,Baseline,4,43,High Prob,4,3,2,0.5596018,2,0.55,Correct,403,1,-0.58052982,1.78698496,0
404,1033,Baseline,4,44,High Prob,3,2,4,0.4383328,4,0.45,Correct,404,1,-0.82477684,2.281371597,0
405,1033,Baseline,4,45,High Prob,2,4,1,0.3537107,1,0.45,Correct,405,1,-1.039275932,2.827169209,0
406,1033,Baseline,4,46,High Prob,4,1,3,0.3324995,3,0.55,Correct,406,1,-1.101116923,3.00752332,0
407,1033,Baseline,4,47,High Prob,1,3,4,0.493818,4,0.4,Correct,407,1,-0.705588251,2.025037564,0
408,1033,Baseline,4,48,High Prob,3,4,2,0.4972388,2,0.2,Correct,408,1,-0.698684885,2.011106133,0
409,1033,Baseline,4,49,High Prob,4,2,3,0.4645951,3,0.3,Correct,409,1,-0.766589005,2.152411853,0
410,1033,Baseline,4,50,High Prob,2,3,1,0.28265,1,0.45,Correct,410,1,-1.263545896,3.537944454,0
411,1033,Baseline,4,51,High Prob,3,1,2,0.5540375,2,0.5,Correct,411,1,-0.590522905,1.804931977,0
412,1033,Baseline,4,52,High Prob,1,2,1,0.6162785,1,0.25,Correct,412,1,-0.484056307,1.62264301,0
413,1033,Baseline,4,53,High Prob,2,1,4,0.3148118,4,0.5,Correct,413,1,-1.155780279,3.176501008,0
414,1033,Baseline,4,54,High Prob,1,4,3,0.3208955,3,0.3,Correct,414,1,-1.136639754,3.116279287,0
415,1033,Baseline,4,55,High Prob,4,3,2,0.3469769,2,0.6,Correct,415,1,-1.058497072,2.882036239,0
416,1033,Baseline,4,56,High Prob,3,2,4,0.7803075,4,0.4,Correct,416,1,-0.248067206,1.281546057,0
417,1033,Baseline,4,57,High Prob,2,4,1,0.3263784,1,0.55,Correct,417,1,-1.119697835,3.06392825,0
418,1033,Baseline,4,58,High Prob,4,1,3,0.4524329,3,0.5,Correct,418,1,-0.793115814,2.210272507,0
419,1033,Baseline,4,59,High Prob,1,3,4,0.537102,4,0.2,Correct,419,1,-0.621567258,1.861843747,0
420,1033,Baseline,4,60,High Prob,3,4,2,0.3185171,2,0.5,Correct,420,1,-1.144079116,3.139548866,0
421,1033,Baseline,4,61,High Prob,4,2,3,0.4825519,3,0.35,Correct,421,1,-0.728666799,2.072315952,0
422,1033,Baseline,4,62,High Prob,2,3,1,0.2619627,1,0.6,Correct,422,1,-1.339553152,3.817337354,0
423,1033,Baseline,4,63,High Prob,3,1,2,0.6106461,2,0.2,Correct,423,1,-0.493237702,1.637609738,0
424,1033,Baseline,4,64,Low Prob,1,2,4,0.321392,4,0.6,Correct,424,1,-1.135093717,3.111465127,0
425,1033,Baseline,4,65,High Prob,2,4,1,0.4654315,1,0.45,Correct,425,1,-0.764790347,2.148543878,0
426,1033,Baseline,4,66,High Prob,4,1,3,0.4934956,3,0.4,Correct,426,1,-0.706241336,2.026360519,0
427,1033,Baseline,4,67,Low Prob,1,3,2,0.5609059,2,0.6,Correct,427,1,-0.578202124,1.782830239,0
428,1033,Baseline,4,68,High Prob,3,2,4,0.4376221,4,0.5,Correct,428,1,-0.826399526,2.285076553,0
429,1033,Baseline,4,69,High Prob,2,4,1,0.3050668,1,0.45,Correct,429,1,-1.18722451,3.277970595,0
430,1033,Baseline,4,70,High Prob,4,1,3,0.4817789,3,0.45,Correct,430,1,-0.730269984,2.075640922,0
431,1033,Baseline,4,71,High Prob,1,3,4,0.4031576,4,0.25,Correct,431,1,-0.908427726,2.480419568,0
432,1033,Baseline,4,72,High Prob,3,4,2,0.3718743,2,0.35,Correct,432,1,-0.989199385,2.689080692,0
433,1033,Baseline,4,73,High Prob,4,2,3,0.4299397,4,0.55,Wrong,433,0,-0.844110313,2.325907563,1
434,1033,Baseline,4,74,High Prob,2,3,1,0.5919803,1,0.3,Correct,434,1,-0.524281922,1.689245402,0
435,1033,Baseline,4,75,High Prob,3,1,2,0.4273767,2,0.3,Correct,435,1,-0.850089453,2.33985615,0
436,1033,Baseline,4,76,High Prob,1,2,1,0.3934289,1,0.4,Correct,436,1,-0.932854914,2.541755321,0
437,1033,Baseline,4,77,High Prob,2,1,4,0.4488549,4,0.2,Correct,437,1,-0.801055606,2.227891463,0
438,1033,Baseline,4,78,High Prob,1,4,3,0.3195126,3,0.35,Correct,438,1,-1.140958569,3.129767026,0
439,1033,Baseline,4,79,High Prob,4,3,2,0.5455573,2,0.4,Correct,439,1,-0.605947438,1.832988029,0
440,1033,Baseline,4,80,High Prob,3,2,4,0.5429488,4,0.3,Correct,440,1,-0.610740254,1.841794291,0
441,1033,Baseline,4,81,High Prob,2,4,1,0.462329,1,0.25,Correct,441,1,-0.77147852,2.162961873,0
442,1033,Baseline,4,82,High Prob,4,1,3,0.311065,3,0.5,Correct,442,1,-1.167753385,3.214762188,0
443,1033,Baseline,4,83,High Prob,1,3,4,0.4317647,4,0.25,Correct,443,1,-0.839874515,2.316076326,0
444,1033,Baseline,4,84,High Prob,3,4,2,0.4311616,2,0.35,Correct,444,1,-0.841272317,2.319316006,0
445,1033,Baseline,4,85,High Prob,4,2,3,0.4851811,3,0.2,Correct,445,1,-0.723233056,2.061086056,0
446,1033,Baseline,4,86,High Prob,2,3,1,0.3545654,1,0.35,Correct,446,1,-1.036862465,2.820354158,0
447,1033,Baseline,4,87,High Prob,3,1,2,0.4872903,2,0.3,Correct,447,1,-0.718895235,2.052164798,0
448,1033,Baseline,4,88,High Prob,1,2,1,0.3946921,1,0.6,Correct,448,1,-0.929649312,2.533620511,0
449,1033,Baseline,4,89,High Prob,2,1,4,0.4980494,4,0.2,Correct,449,1,-0.69705601,2.007832958,0
450,1033,Baseline,4,90,High Prob,1,4,3,0.3174429,3,0.4,Correct,450,1,-1.147457319,3.150172834,0
451,1033,Baseline,4,91,High Prob,4,3,2,0.5514874,2,0.2,Correct,451,1,-0.595136287,1.813278055,0
452,1033,Baseline,4,92,High Prob,3,2,4,0.6461963,4,0.25,Correct,452,1,-0.436651951,1.547517372,0
453,1033,Baseline,4,93,High Prob,2,4,1,0.6816028,1,0.45,Correct,453,1,-0.383308195,1.467130123,0
454,1033,Baseline,4,94,High Prob,4,1,3,0.6450148,4,0.6,Wrong,454,0,-0.438482017,1.550352023,1
455,1033,Baseline,4,95,High Prob,1,3,4,0.5464465,3,0.6,Wrong,455,0,-0.604318872,1.830005316,1
456,1033,Baseline,4,96,Low Prob,3,4,1,0.4958356,1,0.3,Correct,456,1,-0.701510859,2.016797503,0
457,1033,Baseline,4,97,High Prob,4,1,3,0.4052159,3,0.55,Correct,457,1,-0.903335267,2.467820241,0
458,1033,Baseline,4,98,High Prob,1,3,4,0.5879808,4,0.2,Correct,458,1,-0.531060985,1.700735806,0
459,1033,Baseline,4,99,High Prob,3,4,2,0.553262,2,0.25,Correct,459,1,-0.59192361,1.807461926,0
460,1033,Baseline,4,100,High Prob,4,2,3,0.4260454,3,0.2,Correct,460,1,-0.853209366,2.347167696,0
461,1033,Baseline,4,101,High Prob,2,3,1,0.2900503,1,0.55,Correct,461,1,-1.237700923,3.447677868,0
462,1033,Baseline,4,102,High Prob,3,1,2,0.4194214,2,0.45,Correct,462,1,-0.868879137,2.384236951,0
463,1033,Baseline,4,103,High Prob,1,2,1,0.3035056,1,0.45,Correct,463,1,-1.192355217,3.294832122,0
464,1033,Baseline,4,104,High Prob,2,1,4,0.4882618,4,0.25,Correct,464,1,-0.716903542,2.048081582,0
465,1033,Baseline,4,105,High Prob,1,4,3,0.3896381,3,0.35,Correct,465,1,-0.942536919,2.56648413,0
466,1033,Baseline,4,106,High Prob,4,3,2,0.5209832,2,0.3,Correct,466,1,-0.652037483,1.91944769,0
467,1033,Baseline,4,107,High Prob,3,2,4,0.3350588,4,0.5,Correct,467,1,-1.09344924,2.984550771,0
468,1033,Baseline,4,108,High Prob,2,4,1,0.2725017,1,0.4,Correct,468,1,-1.300110426,3.669701877,0
469,1033,Baseline,4,109,High Prob,4,1,3,0.3424566,3,0.35,Correct,469,1,-1.071610345,2.920078048,0
470,1033,Baseline,4,110,High Prob,1,3,4,0.543853,4,0.2,Correct,470,1,-0.609076289,1.838732157,0
471,1033,Baseline,4,111,High Prob,3,4,2,0.3432525,1,0.45,Wrong,471,0,-1.069288951,2.913307259,1
472,1033,Baseline,4,112,Low Prob,4,2,1,0.464627,1,0.6,Correct,472,1,-0.766520346,2.152264074,0
473,1033,Baseline,4,113,High Prob,2,1,4,0.4793683,4,0.35,Correct,473,1,-0.735286083,2.0860787,0
474,1033,Baseline,4,114,High Prob,1,4,3,0.2914255,3,0.6,Correct,474,1,-1.23297088,3.431408713,0
475,1033,Baseline,4,115,High Prob,4,3,2,0.4568373,2,0.35,Correct,475,1,-0.783427969,2.188963117,0
476,1033,Baseline,4,116,High Prob,3,2,4,0.459505,4,0.25,Correct,476,1,-0.777605456,2.176254883,0
477,1033,Baseline,4,117,Low Prob,2,4,3,0.5022318,3,0.45,Correct,477,1,-0.688693513,1.99111247,0
478,1033,Baseline,4,118,High Prob,4,3,2,0.5209715,2,0.6,Correct,478,1,-0.652059941,1.919490797,0
479,1033,Baseline,4,119,High Prob,3,2,4,0.443015,4,0.2,Correct,479,1,-0.814151649,2.257259912,0
480,1033,Baseline,4,120,High Prob,2,4,1,0.2963914,1,0.4,Correct,480,1,-1.216074401,3.373917057,0
481,1033,Baseline,5,1,High Prob,2,3,1,0.3132093,1,0.6,Correct,481,1,-1.160883622,3.192753216,0
482,1033,Baseline,5,2,High Prob,3,1,2,0.3419252,2,0.55,Correct,482,1,-1.073163279,2.924616261,0
483,1033,Baseline,5,3,High Prob,1,2,1,0.2733068,1,0.55,Correct,483,1,-1.297160305,3.658891766,0
484,1033,Baseline,5,4,High Prob,2,1,4,0.3913452,4,0.35,Correct,484,1,-0.938165244,2.555288783,0
485,1033,Baseline,5,5,Low Prob,1,4,2,0.4427272,2,0.3,Correct,485,1,-0.8148015,2.25872727,0
486,1033,Baseline,5,6,High Prob,4,2,3,0.5121047,3,0.2,Correct,486,1,-0.669226183,1.952725683,0
487,1033,Baseline,5,7,High Prob,2,3,1,0.2448597,1,0.55,Correct,487,1,-1.407069886,4.083971352,0
488,1033,Baseline,5,8,High Prob,3,1,2,0.4381886,2,0.5,Correct,488,1,-0.825105868,2.282122356,0
489,1033,Baseline,5,9,High Prob,1,2,1,0.3675751,1,0.5,Correct,489,1,-1.000827627,2.720532484,0
490,1033,Baseline,5,10,High Prob,2,1,4,0.4616299,4,0.45,Correct,490,1,-0.772991791,2.166237499,0
491,1033,Baseline,5,11,High Prob,1,4,3,0.3303505,3,0.4,Correct,491,1,-1.107601067,3.027087896,0
492,1033,Baseline,5,12,High Prob,4,3,2,0.4603983,2,0.4,Correct,492,1,-0.775663295,2.172032347,0
493,1033,Baseline,5,13,High Prob,3,2,4,0.447201,4,0.25,Correct,493,1,-0.804747121,2.236130957,0
494,1033,Baseline,5,14,High Prob,2,4,1,0.3165269,1,0.4,Correct,494,1,-1.150347049,3.159289147,0
495,1033,Baseline,5,15,High Prob,4,1,3,0.3705843,3,0.3,Correct,495,1,-0.99267433,2.698441353,0
496,1033,Baseline,5,16,High Prob,1,3,4,0.4146368,4,0.5,Correct,496,1,-0.880352323,2.411749271,0
497,1033,Baseline,5,17,Low Prob,3,4,1,0.5733584,1,0.4,Correct,497,1,-0.556244278,1.744109792,0
498,1033,Baseline,5,18,High Prob,4,1,3,0.3394258,3,0.45,Correct,498,1,-1.080499913,2.946152001,0
499,1033,Baseline,5,19,High Prob,1,3,4,0.4427933,4,0.25,Correct,499,1,-0.814652209,2.258390089,0
500,1033,Baseline,5,20,High Prob,3,4,2,0.5801958,2,0.5,Correct,500,1,-0.544389646,1.723556082,0
501,1033,Baseline,5,21,High Prob,4,2,3,0.4642807,3,0.3,Correct,501,1,-0.767265953,2.153869416,0
502,1033,Baseline,5,22,High Prob,2,3,1,0.3909605,1,0.55,Correct,502,1,-0.939148747,2.557803154,0
503,1033,Baseline,5,23,High Prob,3,1,2,0.8103507,2,0.3,Correct,503,1,-0.210288162,1.23403361,0
504,1033,Baseline,5,24,High Prob,1,2,1,0.4890669,1,0.4,Correct,504,1,-0.715255989,2.044710039,0
505,1033,Baseline,5,25,High Prob,2,1,4,0.4564675,4,0.3,Correct,505,1,-0.784237775,2.190736471,0
506,1033,Baseline,5,26,High Prob,1,4,3,0.3091883,3,0.4,Correct,506,1,-1.173804803,3.234275036,0
507,1033,Baseline,5,27,High Prob,4,3,2,0.567914,2,0.4,Correct,507,1,-0.56578528,1.760829985,0
508,1033,Baseline,5,28,High Prob,3,2,4,0.3779184,4,0.55,Correct,508,1,-0.97307698,2.646073861,0
509,1033,Baseline,5,29,High Prob,2,4,1,0.4160137,1,0.25,Correct,509,1,-0.877037087,2.403766991,0
510,1033,Baseline,5,30,Low Prob,4,1,2,0.5140129,2,0.3,Correct,510,1,-0.665506917,1.945476466,0
511,1033,Baseline,5,31,High Prob,1,2,1,0.4647321,1,0.3,Correct,511,1,-0.766294168,2.151777336,0
512,1033,Baseline,5,32,High Prob,2,1,4,0.4188176,4,0.25,Correct,512,1,-0.870319776,2.387674252,0
513,1033,Baseline,5,33,High Prob,1,4,3,0.406838,3,0.25,Correct,513,1,-0.899340207,2.457980818,0
514,1033,Baseline,5,34,High Prob,4,3,2,0.4995948,2,0.45,Correct,514,1,-0.693957909,2.001622115,0
515,1033,Baseline,5,35,High Prob,3,2,4,0.4783814,4,0.4,Correct,515,1,-0.737346957,2.090382277,0
516,1033,Baseline,5,36,High Prob,2,4,1,0.4503558,1,0.2,Correct,516,1,-0.797717342,2.220466573,0
517,1033,Baseline,5,37,High Prob,4,1,3,0.3190847,3,0.4,Correct,517,1,-1.142298694,3.133964117,0
518,1033,Baseline,5,38,High Prob,1,3,4,0.5531054,4,0.6,Correct,518,1,-0.592206699,1.80797367,0
519,1033,Baseline,5,39,High Prob,3,4,2,0.5018565,2,0.3,Correct,519,1,-0.689441057,1.992601471,0
520,1033,Baseline,5,40,High Prob,4,2,3,0.5305743,3,0.35,Correct,520,1,-0.633795274,1.884750166,0
521,1033,Baseline,5,41,High Prob,2,3,1,0.2927188,1,0.6,Correct,521,1,-1.228542858,3.416247949,0
522,1033,Baseline,5,42,Low Prob,3,1,4,0.4420308,4,0.35,Correct,522,1,-0.816375716,2.262285795,0
523,1033,Baseline,5,43,High Prob,1,4,3,0.5774221,3,0.55,Correct,523,1,-0.549181737,1.731835342,0
524,1033,Baseline,5,44,High Prob,4,3,2,0.357509,2,0.5,Correct,524,1,-1.028594742,2.79713238,0
525,1033,Baseline,5,45,High Prob,3,2,4,0.4462285,4,0.6,Correct,525,1,-0.806924126,2.241004328,0
526,1033,Baseline,5,46,High Prob,2,4,1,0.4116157,1,0.4,Correct,526,1,-0.887665132,2.429450577,0
527,1033,Baseline,5,47,High Prob,4,1,3,0.3983221,3,0.3,Correct,527,1,-0.920494305,2.51053105,0
528,1033,Baseline,5,48,High Prob,1,3,4,0.3650488,4,0.4,Correct,528,1,-1.007724236,2.739359779,0
529,1033,Baseline,5,49,High Prob,3,4,2,0.5970248,2,0.2,Correct,529,1,-0.515796625,1.674972296,0
530,1033,Baseline,5,50,High Prob,4,2,3,0.4844923,3,0.6,Correct,530,1,-0.72465374,2.064016291,0
531,1033,Baseline,5,51,Low Prob,2,3,4,0.4538682,4,0.25,Correct,531,1,-0.789948431,2.203282803,0
532,1033,Baseline,5,52,High Prob,3,4,2,0.4965826,2,0.45,Correct,532,1,-0.700005445,2.013763672,0
533,1033,Baseline,5,53,Low Prob,4,2,1,0.2819694,1,0.45,Correct,533,1,-1.265956725,3.546484122,0
534,1033,Baseline,5,54,High Prob,2,1,4,0.3493601,4,0.4,Correct,534,1,-1.051652084,2.862376098,0
535,1033,Baseline,5,55,High Prob,1,4,3,0.3100526,3,0.2,Correct,535,1,-1.171013318,3.225259198,0
536,1033,Baseline,5,56,High Prob,4,3,2,0.3747808,2,0.45,Correct,536,1,-0.981413957,2.668226334,0
537,1033,Baseline,5,57,High Prob,3,2,4,0.3928278,4,0.35,Correct,537,1,-0.934383931,2.545644682,0
538,1033,Baseline,5,58,High Prob,2,4,1,0.2782036,1,0.45,Correct,538,1,-1.279402059,3.594489791,0
539,1033,Baseline,5,59,High Prob,4,1,3,0.4022269,3,0.2,Correct,539,1,-0.910738922,2.486158932,0
540,1033,Baseline,5,60,High Prob,1,3,4,0.4329265,4,0.4,Correct,540,1,-0.837187311,2.309860912,0
541,1033,Baseline,5,61,Low Prob,3,4,1,0.390291,1,0.2,Correct,541,1,-0.940862664,2.562190776,0
542,1033,Baseline,5,62,High Prob,4,1,3,0.2717213,3,0.55,Correct,542,1,-1.30297837,3.680241483,0
543,1033,Baseline,5,63,High Prob,1,3,4,0.4197572,4,0.4,Correct,543,1,-0.86807883,2.382329594,0
544,1033,Baseline,5,64,Low Prob,3,4,1,0.6198329,1,0.55,Correct,544,1,-0.478305353,1.613338046,0
545,1033,Baseline,5,65,High Prob,4,1,3,0.3158554,3,0.55,Correct,545,1,-1.152470765,3.16600571,0
546,1033,Baseline,5,66,High Prob,1,3,4,0.4679068,4,0.25,Correct,546,1,-0.759486148,2.137177746,0
547,1033,Baseline,5,67,High Prob,3,4,2,0.4859915,2,0.25,Correct,547,1,-0.721564145,2.057649156,0
548,1033,Baseline,5,68,Low Prob,4,2,1,0.3214247,1,0.4,Correct,548,1,-1.134991977,3.111148583,0
549,1033,Baseline,5,69,High Prob,2,1,4,0.3574401,4,0.35,Correct,549,1,-1.028787483,2.797671554,0
550,1033,Baseline,5,70,Low Prob,1,4,2,0.3841605,2,0.55,Correct,550,1,-0.956694845,2.603078661,0
551,1033,Baseline,5,71,Low Prob,4,2,1,0.4015422,1,0.35,Correct,551,1,-0.912442645,2.490398269,0
552,1033,Baseline,5,72,Low Prob,2,1,3,0.7802167,3,0.5,Correct,552,1,-0.248183577,1.281695201,0
553,1033,Baseline,5,73,High Prob,1,3,4,0.3243487,4,0.6,Correct,553,1,-1.125936107,3.083101613,0
554,1033,Baseline,5,74,High Prob,3,4,2,0.4384028,3,0.4,Wrong,554,0,-0.824617157,2.281007329,1
555,1033,Baseline,5,75,High Prob,4,2,3,0.507785,3,0.6,Correct,555,1,-0.677697149,1.969337416,0
556,1033,Baseline,5,76,Low Prob,2,3,4,0.3745093,4,0.4,Correct,556,1,-0.982138643,2.670160661,0
557,1033,Baseline,5,77,High Prob,3,4,2,0.5145723,2,0.5,Correct,557,1,-0.664419209,1.943361506,0
558,1033,Baseline,5,78,High Prob,4,2,3,0.3433364,3,0.55,Correct,558,1,-1.069044554,2.912595344,0
559,1033,Baseline,5,79,High Prob,2,3,1,0.4146786,1,0.25,Correct,559,1,-0.880251517,2.411506164,0
560,1033,Baseline,5,80,High Prob,3,1,2,0.6747112,2,0.25,Correct,560,1,-0.393470532,1.482115607,0
561,1033,Baseline,5,81,High Prob,1,2,1,0.2867978,1,0.6,Correct,561,1,-1.248977841,3.486777095,0
562,1033,Baseline,5,82,High Prob,2,1,4,0.5921718,4,0.45,Correct,562,1,-0.523958483,1.688699124,0
563,1033,Baseline,5,83,High Prob,1,4,3,0.3375817,3,0.55,Correct,563,1,-1.085947724,2.96224588,0
564,1033,Baseline,5,84,High Prob,4,3,2,0.5109744,2,0.5,Correct,564,1,-0.671435788,1.957045206,0
565,1033,Baseline,5,85,High Prob,3,2,4,0.4616786,4,0.3,Correct,565,1,-0.772886301,2.166008994,0
566,1033,Baseline,5,86,High Prob,2,4,1,0.3103844,1,0.5,Correct,566,1,-1.16994375,3.221811405,0
567,1033,Baseline,5,87,Low Prob,4,1,2,0.4811103,2,0.2,Correct,567,1,-0.731658721,2.078525444,0
568,1033,Baseline,5,88,High Prob,1,2,1,0.347175,1,0.45,Correct,568,1,-1.057926303,2.880391733,0
569,1033,Baseline,5,89,High Prob,2,1,4,0.3865503,4,0.25,Correct,569,1,-0.950493277,2.586985445,0
570,1033,Baseline,5,90,High Prob,1,4,3,0.3439544,3,0.25,Correct,570,1,-1.067246189,2.907362139,0
571,1033,Baseline,5,91,High Prob,4,3,2,0.4653288,2,0.6,Correct,571,1,-0.765011026,2.149018071,0
572,1033,Baseline,5,92,Low Prob,3,2,3,0.3633766,3,0.45,Correct,572,1,-1.012315517,2.751965867,0
573,1033,Baseline,5,93,Low Prob,2,3,4,0.4041706,4,0.6,Correct,573,1,-0.905918213,2.474202725,0
574,1033,Baseline,5,94,High Prob,3,4,2,0.4928347,2,0.55,Correct,574,1,-0.707581455,2.029077904,0
575,1033,Baseline,5,95,High Prob,4,2,3,0.5502035,3,0.45,Correct,575,1,-0.597467069,1.81750934,0
576,1033,Baseline,5,96,Low Prob,2,3,4,0.4929993,4,0.45,Correct,576,1,-0.707247525,2.028400446,0
577,1033,Baseline,5,97,Low Prob,3,4,1,0.3243531,1,0.5,Correct,577,1,-1.125922542,3.083059789,0
578,1033,Baseline,5,98,High Prob,4,1,3,0.542395,3,0.2,Correct,578,1,-0.611760761,1.843674813,0
579,1033,Baseline,5,99,Low Prob,1,3,2,0.6137865,2,0.45,Correct,579,1,-0.488108131,1.629231011,0
580,1033,Baseline,5,100,High Prob,3,2,4,0.5185933,4,0.55,Correct,580,1,-0.656635325,1.928293327,0
581,1033,Baseline,5,101,High Prob,2,4,1,0.4406338,1,0.2,Correct,581,1,-0.819541134,2.269458221,0
582,1033,Baseline,5,102,High Prob,4,1,3,0.4459276,3,0.2,Correct,582,1,-0.807598672,2.242516498,0
583,1033,Baseline,5,103,High Prob,1,3,4,0.4853638,4,0.55,Correct,583,1,-0.722856566,2.060310225,0
584,1033,Baseline,5,104,Low Prob,3,4,1,0.4787384,1,0.45,Correct,584,1,-0.736600969,2.088823458,0
585,1033,Baseline,5,105,High Prob,4,1,3,0.3148018,3,0.4,Correct,585,1,-1.155812045,3.176601913,0
586,1033,Baseline,5,106,High Prob,1,3,4,0.3328425,4,0.4,Correct,586,1,-1.100085874,3.004424014,0
587,1033,Baseline,5,107,High Prob,3,4,2,0.6102099,2,0.3,Correct,587,1,-0.493952283,1.638780361,0
588,1033,Baseline,5,108,Low Prob,4,2,1,0.4489305,1,0.2,Correct,588,1,-0.800887192,2.227516286,0
589,1033,Baseline,5,109,Low Prob,2,1,3,0.3316632,3,0.45,Correct,589,1,-1.103635283,3.015106892,0
590,1033,Baseline,5,110,High Prob,1,3,4,0.3510696,4,0.35,Correct,590,1,-1.046770785,2.848438031,0
591,1033,Baseline,5,111,High Prob,3,4,2,0.4617536,2,0.45,Correct,591,1,-0.772723864,2.165657182,0
592,1033,Baseline,5,112,High Prob,4,2,3,0.4404727,3,0.45,Correct,592,1,-0.819906811,2.270288261,0
593,1033,Baseline,5,113,High Prob,2,3,1,0.3558338,1,0.45,Correct,593,1,-1.033291511,2.810300764,0
594,1033,Baseline,5,114,High Prob,3,1,2,0.4525569,2,0.4,Correct,594,1,-0.792841778,2.209666895,0
595,1033,Baseline,5,115,High Prob,1,2,1,0.4213471,1,0.3,Correct,595,1,-0.864298319,2.373340175,0
596,1033,Baseline,5,116,Low Prob,2,1,3,0.5613863,3,0.45,Correct,596,1,-0.577346019,1.781304603,0
597,1033,Baseline,5,117,High Prob,1,3,4,0.5560908,4,0.35,Correct,597,1,-0.586823689,1.798267477,0
598,1033,Baseline,5,118,High Prob,3,4,2,0.3707979,2,0.45,Correct,598,1,-0.992098109,2.696886903,0
599,1033,Baseline,5,119,High Prob,4,2,3,0.3788353,3,0.6,Correct,599,1,-0.970653733,2.639669534,0
600,1033,Baseline,5,120,High Prob,2,3,1,0.3788957,1,0.4,Correct,600,1,-0.97049431,2.639248743,0
601,1033,Baseline,6,1,High Prob,2,3,1,0.3339564,1,0.5,Correct,601,1,-1.096744833,2.994402862,0
602,1033,Baseline,6,2,High Prob,3,1,2,0.3453421,2,0.55,Correct,602,1,-1.063219759,2.895679386,0
603,1033,Baseline,6,3,High Prob,1,2,1,0.3986996,1,0.3,Correct,603,1,-0.919547028,2.508154009,0
604,1033,Baseline,6,4,High Prob,2,1,4,0.3134271,4,0.5,Correct,604,1,-1.160188482,3.190534577,0
605,1033,Baseline,6,5,High Prob,1,4,3,0.3361329,3,0.3,Correct,605,1,-1.090248662,2.975013752,0
606,1033,Baseline,6,6,High Prob,4,3,2,0.5595115,2,0.45,Correct,606,1,-0.580691197,1.787273363,0
607,1033,Baseline,6,7,High Prob,3,2,4,0.3702544,4,0.55,Correct,607,1,-0.993564942,2.700845689,0
608,1033,Baseline,6,8,High Prob,2,4,1,0.2523004,1,0.55,Correct,608,1,-1.377134838,3.96352919,0
609,1033,Baseline,6,9,High Prob,4,1,3,0.4650211,3,0.4,Correct,609,1,-0.765672498,2.150440055,0
610,1033,Baseline,6,10,High Prob,1,3,4,0.3410946,4,0.6,Correct,610,1,-1.075595421,2.931737999,0
611,1033,Baseline,6,11,High Prob,3,4,2,0.446456,2,0.2,Correct,611,1,-0.806414428,2.239862383,0
612,1033,Baseline,6,12,High Prob,4,2,3,0.3738495,3,0.55,Correct,612,1,-0.983901969,2.674873178,0
613,1033,Baseline,6,13,High Prob,2,3,1,0.3298988,1,0.3,Correct,613,1,-1.108969338,3.031232608,0
614,1033,Baseline,6,14,High Prob,3,1,2,0.4819411,2,0.25,Correct,614,1,-0.729933372,2.074942353,0
615,1033,Baseline,6,15,High Prob,1,2,1,0.3553403,1,0.25,Correct,615,1,-1.034679357,2.814203737,0
616,1033,Baseline,6,16,High Prob,2,1,4,0.3620238,4,0.25,Correct,616,1,-1.016045323,2.762249333,0
617,1033,Baseline,6,17,High Prob,1,4,3,0.3247386,3,0.55,Correct,617,1,-1.124734728,3.079399862,0
618,1033,Baseline,6,18,High Prob,4,3,2,0.5427888,2,0.2,Correct,618,1,-0.611034985,1.842337204,0
619,1033,Baseline,6,19,High Prob,3,2,4,0.6281412,4,0.5,Correct,619,1,-0.464990297,1.591998742,0
620,1033,Baseline,6,20,High Prob,2,4,1,0.2982521,1,0.4,Correct,620,1,-1.209816177,3.352868261,0
621,1033,Baseline,6,21,High Prob,4,1,3,0.276983,3,0.6,Correct,621,1,-1.283799147,3.610329876,0
622,1033,Baseline,6,22,Low Prob,1,3,2,0.385009,2,0.2,Correct,622,1,-0.954488568,2.59734188,0
623,1033,Baseline,6,23,Low Prob,3,2,3,0.438379,3,0.25,Correct,623,1,-0.824671446,2.281131167,0
624,1033,Baseline,6,24,Low Prob,2,3,4,0.2837803,4,0.6,Correct,624,1,-1.259554932,3.523852783,0
625,1033,Baseline,6,25,High Prob,3,4,2,0.4531226,2,0.25,Correct,625,1,-0.79159255,2.206908241,0
626,1033,Baseline,6,26,High Prob,4,2,3,0.9698461,3,0.2,Correct,626,1,-0.03061788,1.031091428,0
627,1033,Baseline,6,27,Low Prob,2,3,4,0.45194,4,0.35,Correct,627,1,-0.794205851,2.2126831,0
628,1033,Baseline,6,28,High Prob,3,4,2,0.5767086,2,0.4,Correct,628,1,-0.550418166,1.733977957,0
629,1033,Baseline,6,29,High Prob,4,2,3,0.3047975,4,0.6,Wrong,629,0,-1.188107657,3.280866805,1
630,1033,Baseline,6,30,High Prob,2,3,1,0.4654553,1,0.45,Correct,630,1,-0.764739213,2.148434017,0
631,1033,Baseline,6,31,High Prob,3,1,2,0.3475063,2,0.45,Correct,631,1,-1.056972485,2.877645671,0
632,1033,Baseline,6,32,High Prob,1,2,1,0.3988889,1,0.35,Correct,632,1,-0.919072347,2.506963718,0
633,1033,Baseline,6,33,High Prob,2,1,4,0.3276305,3,0.55,Wrong,633,0,-1.11586883,3.052218887,1
634,1033,Baseline,6,34,High Prob,1,4,3,1.121669,3,0.6,Correct,634,1,0.114817755,0.891528606,0
635,1033,Baseline,6,35,High Prob,4,3,2,0.315784,2,0.6,Correct,635,1,-1.152696843,3.166721557,0
636,1033,Baseline,6,36,High Prob,3,2,4,0.4798314,4,0.35,Correct,636,1,-0.734320487,2.084065361,0
637,1033,Baseline,6,37,High Prob,2,4,1,0.4198701,1,0.2,Correct,637,1,-0.867809901,2.381689003,0
638,1033,Baseline,6,38,High Prob,4,1,3,0.2739124,3,0.4,Correct,638,1,-1.294946932,3.650802227,0
639,1033,Baseline,6,39,Low Prob,1,3,2,0.3059787,1,0.5,Wrong,639,0,-1.184239787,3.268201349,1
640,1033,Baseline,6,40,High Prob,3,2,4,0.2226879,3,0.55,Wrong,640,0,-1.501984039,4.490589745,1
641,1033,Baseline,6,41,High Prob,2,4,1,0.3707418,1,0.45,Correct,641,1,-0.992249416,2.697294991,0
642,1033,Baseline,6,42,High Prob,4,1,3,0.5548041,3,0.6,Correct,642,1,-0.589140201,1.802438014,0
643,1033,Baseline,6,43,High Prob,1,3,4,0.4695137,4,0.35,Correct,643,1,-0.756057801,2.129863303,0
644,1033,Baseline,6,44,High Prob,3,4,2,0.2715846,2,0.45,Correct,644,1,-1.303481586,3.682093904,0
645,1033,Baseline,6,45,Low Prob,4,2,1,0.4836423,1,0.4,Correct,645,1,-0.726409695,2.067643794,0
646,1033,Baseline,6,46,High Prob,2,1,4,0.5170008,4,0.25,Correct,646,1,-0.659710857,1.934232984,0
647,1033,Baseline,6,47,High Prob,1,4,3,0.2350804,3,0.5,Correct,647,1,-1.447827696,4.253863784,0
648,1033,Baseline,6,48,High Prob,4,3,2,0.3204494,2,0.4,Correct,648,1,-1.138030893,3.120617483,0
649,1033,Baseline,6,49,High Prob,3,2,4,0.4724806,4,0.25,Correct,649,1,-0.749758591,2.116489016,0
650,1033,Baseline,6,50,High Prob,2,4,1,0.3185456,1,0.55,Correct,650,1,-1.143989643,3.139267973,0
651,1033,Baseline,6,51,High Prob,4,1,3,0.4005865,3,0.4,Correct,651,1,-0.914825556,2.496339742,0
652,1033,Baseline,6,52,High Prob,1,3,4,0.4553228,4,0.2,Correct,652,1,-0.786748661,2.196244071,0
653,1033,Baseline,6,53,High Prob,3,4,2,0.3120173,2,0.3,Correct,653,1,-1.164696644,3.204950495,0
654,1033,Baseline,6,54,High Prob,4,2,3,0.6207133,3,0.35,Correct,654,1,-0.476885978,1.611049739,0
655,1033,Baseline,6,55,High Prob,2,3,1,0.4067514,1,0.3,Correct,655,1,-0.899553091,2.458504138,0
656,1033,Baseline,6,56,Low Prob,3,1,4,0.491494,4,0.25,Correct,656,1,-0.710305547,2.034612834,0
657,1033,Baseline,6,57,High Prob,1,4,3,0.2708949,3,0.6,Correct,657,1,-1.306024356,3.691468536,0
658,1033,Baseline,6,58,Low Prob,4,3,1,0.3069385,1,0.4,Correct,658,1,-1.181107877,3.257981648,0
659,1033,Baseline,6,59,Low Prob,3,1,4,0.4996626,4,0.45,Correct,659,1,-0.693822208,2.001350511,0
660,1033,Baseline,6,60,High Prob,1,4,3,0.3203727,3,0.35,Correct,660,1,-1.138270273,3.121364586,0
661,1033,Baseline,6,61,High Prob,4,3,2,0.348434,2,0.55,Correct,661,1,-1.05430645,2.869983985,0
662,1033,Baseline,6,62,Low Prob,3,2,3,0.4311882,3,0.35,Correct,662,1,-0.841210625,2.319172927,0
663,1033,Baseline,6,63,High Prob,2,3,1,0.3312264,1,0.45,Correct,663,1,-1.10495315,3.01908302,0
664,1033,Baseline,6,64,Low Prob,3,1,4,0.3352035,4,0.35,Correct,664,1,-1.093017469,2.983262406,0
665,1033,Baseline,6,65,High Prob,1,4,3,0.4586301,3,0.55,Correct,665,1,-0.779511276,2.180406389,0
666,1033,Baseline,6,66,High Prob,4,3,2,0.645405,2,0.45,Correct,666,1,-0.437877252,1.549414709,0
667,1033,Baseline,6,67,High Prob,3,2,4,0.360764,4,0.45,Correct,667,1,-1.019531274,2.7718952,0
668,1033,Baseline,6,68,Low Prob,2,4,3,0.5134719,3,0.2,Correct,668,1,-0.666559974,1.947526242,0
669,1033,Baseline,6,69,High Prob,4,3,2,0.3282012,3,0.5,Wrong,669,0,-1.114128444,3.046911468,1
670,1033,Baseline,6,70,Low Prob,3,2,3,0.4822411,3,0.2,Correct,670,1,-0.729311083,2.073651541,0
671,1033,Baseline,6,71,High Prob,2,3,1,0.2976186,1,0.5,Correct,671,1,-1.211942478,3.360005053,0
672,1033,Baseline,6,72,High Prob,3,1,2,0.5650014,2,0.2,Correct,672,1,-0.57092707,1.769907119,0
673,1033,Baseline,6,73,Low Prob,1,2,4,0.3490415,4,0.4,Correct,673,1,-1.052564453,2.864988834,0
674,1033,Baseline,6,74,High Prob,2,4,1,0.3177612,2,0.4,Wrong,674,0,-1.146455122,3.14701732,1
675,1033,Baseline,6,75,High Prob,4,1,3,0.4818658,3,0.35,Correct,675,1,-0.730089627,2.075266599,0
676,1033,Baseline,6,76,Low Prob,1,3,2,0.5712072,2,0.45,Correct,676,1,-0.560003263,1.750678213,0
677,1033,Baseline,6,77,High Prob,3,2,4,0.4472976,4,0.5,Correct,677,1,-0.804531134,2.235648034,0
678,1033,Baseline,6,78,High Prob,2,4,1,0.3006585,1,0.4,Correct,678,1,-1.20178021,3.326032692,0
679,1033,Baseline,6,79,High Prob,4,1,3,0.4213629,3,0.25,Correct,679,1,-0.864260821,2.373251181,0
680,1033,Baseline,6,80,High Prob,1,3,4,0.393414,4,0.25,Correct,680,1,-0.932892786,2.541851586,0
681,1033,Baseline,6,81,High Prob,3,4,2,0.444786,2,0.3,Correct,681,1,-0.810162011,2.248272203,0
682,1033,Baseline,6,82,High Prob,4,2,3,0.4316653,3,0.25,Correct,682,1,-0.84010476,2.316609651,0
683,1033,Baseline,6,83,High Prob,2,3,1,0.3815462,1,0.4,Correct,683,1,-0.963523335,2.620914584,0
684,1033,Baseline,6,84,Low Prob,3,1,4,0.4369324,4,0.6,Correct,684,1,-0.827976787,2.288683558,0
685,1033,Baseline,6,85,High Prob,1,4,3,0.2903503,3,0.4,Correct,685,1,-1.236667154,3.444115608,0
686,1033,Baseline,6,86,High Prob,4,3,2,0.4296904,2,0.2,Correct,686,1,-0.84469033,2.32725702,0
687,1033,Baseline,6,87,High Prob,3,2,4,0.4057572,4,0.55,Correct,687,1,-0.902000328,2.464528048,0
688,1033,Baseline,6,88,High Prob,2,4,1,0.470528,1,0.35,Correct,688,1,-0.753899811,2.125272035,0
689,1033,Baseline,6,89,High Prob,4,1,3,0.4745643,3,0.2,Correct,689,1,-0.745358159,2.107196011,0
690,1033,Baseline,6,90,High Prob,1,3,4,0.3246404,4,0.45,Correct,690,1,-1.125037171,3.080331345,0
691,1033,Baseline,6,91,High Prob,3,4,2,0.2906511,2,0.5,Correct,691,1,-1.2356317,3.440551231,0
692,1033,Baseline,6,92,High Prob,4,2,3,0.4020132,3,0.5,Correct,692,1,-0.911270355,2.487480511,0
693,1033,Baseline,6,93,High Prob,2,3,1,0.3627453,1,0.55,Correct,693,1,-1.014054344,2.756755222,0
694,1033,Baseline,6,94,Low Prob,3,1,4,0.5294672,4,0.25,Correct,694,1,-0.635884061,1.888691122,0
695,1033,Baseline,6,95,High Prob,1,4,3,0.425506,3,0.45,Correct,695,1,-0.85447623,2.350143124,0
696,1033,Baseline,6,96,Low Prob,4,3,1,0.4655356,1,0.55,Correct,696,1,-0.764566708,2.148063435,0
697,1033,Baseline,6,97,High Prob,3,1,2,0.4055923,2,0.6,Correct,697,1,-0.902406811,2.465530041,0
698,1033,Baseline,6,98,Low Prob,1,2,4,0.5543129,3,0.25,Wrong,698,0,-0.59002595,1.80403523,1
699,1033,Baseline,6,99,High Prob,2,4,1,0.3650906,1,0.55,Correct,699,1,-1.007609737,2.739046144,0
700,1033,Baseline,6,100,High Prob,4,1,3,0.5971429,3,0.6,Correct,700,1,-0.515598831,1.674641028,0
701,1033,Baseline,6,101,High Prob,1,3,4,0.3805449,4,0.4,Correct,701,1,-0.966151106,2.627810805,0
702,1033,Baseline,6,102,High Prob,3,4,2,0.5925853,2,0.3,Correct,702,1,-0.52326045,1.687520767,0
703,1033,Baseline,6,103,High Prob,4,2,3,0.4939686,3,0.25,Correct,703,1,-0.705283327,2.024420176,0
704,1033,Baseline,6,104,Low Prob,2,3,4,0.3433483,4,0.45,Correct,704,1,-1.069009895,2.912494397,0
705,1033,Baseline,6,105,High Prob,3,4,2,0.5067491,2,0.35,Correct,705,1,-0.67973927,1.97336315,0
706,1033,Baseline,6,106,High Prob,4,2,3,0.5214769,3,0.3,Correct,706,1,-0.651090301,1.917630484,0
707,1033,Baseline,6,107,Low Prob,2,3,4,0.4395209,4,0.3,Correct,707,1,-0.822070009,2.27520466,0
708,1033,Baseline,6,108,High Prob,3,4,2,0.4649076,2,0.5,Correct,708,1,-0.765916603,2.150965052,0
709,1033,Baseline,6,109,High Prob,4,2,3,0.448959,3,0.3,Correct,709,1,-0.800823709,2.227374883,0
710,1033,Baseline,6,110,High Prob,2,3,1,0.3836825,1,0.35,Correct,710,1,-0.957939891,2.606321633,0
711,1033,Baseline,6,111,High Prob,3,1,2,0.7750438,2,0.2,Correct,711,1,-0.254835735,1.290249661,0
712,1033,Baseline,6,112,High Prob,1,2,1,0.4351309,1,0.5,Correct,712,1,-0.832108374,2.298159014,0
713,1033,Baseline,6,113,High Prob,2,1,4,0.6685203,4,0.5,Correct,713,1,-0.402688516,1.495840889,0
714,1033,Baseline,6,114,Low Prob,1,4,2,0.4746227,1,0.55,Wrong,714,0,-0.745235106,2.106936731,1
715,1033,Baseline,6,115,High Prob,4,2,3,0.566686,3,0.4,Correct,715,1,-0.567949921,1.764645677,0
716,1033,Baseline,6,116,High Prob,2,3,1,0.3127289,1,0.55,Correct,716,1,-1.162418598,3.19765778,0
717,1033,Baseline,6,117,Low Prob,3,1,4,0.5054195,4,0.45,Correct,717,1,-0.682366501,1.978554448,0
718,1033,Baseline,6,118,High Prob,1,4,3,0.338174,3,0.45,Correct,718,1,-1.084194723,2.957057609,0
719,1033,Baseline,6,119,High Prob,4,3,2,0.3635269,2,0.6,Correct,719,1,-1.011901982,2.750828068,0
720,1033,Baseline,6,120,High Prob,3,2,4,0.4342265,4,0.25,Correct,720,1,-0.834188992,2.302945583,0
721,1033,Baseline,7,1,High Prob,2,3,1,0.3290074,1,0.4,Correct,721,1,-1.111675036,3.039445313,0
722,1033,Baseline,7,2,Low Prob,3,1,4,0.296984,4,0.45,Correct,722,1,-1.214077014,3.367184764,0
723,1033,Baseline,7,3,Low Prob,1,4,2,0.2964645,2,0.5,Correct,723,1,-1.215827798,3.373085142,0
724,1033,Baseline,7,4,High Prob,4,2,3,0.383819,3,0.3,Correct,724,1,-0.957584192,2.60539473,0
725,1033,Baseline,7,5,High Prob,2,3,1,0.3091138,1,0.25,Correct,725,1,-1.174045785,3.235054533,0
726,1033,Baseline,7,6,High Prob,3,1,2,0.4998691,2,0.5,Correct,726,1,-0.693409015,2.000523737,0
727,1033,Baseline,7,7,Low Prob,1,2,4,0.4226302,4,0.6,Correct,727,1,-0.861257714,2.366134744,0
728,1033,Baseline,7,8,High Prob,2,4,1,0.3726755,1,0.4,Correct,728,1,-0.987047211,2.683299546,0
729,1033,Baseline,7,9,High Prob,4,1,3,0.3347217,3,0.55,Correct,729,1,-1.094455839,2.987556528,0
730,1033,Baseline,7,10,Low Prob,1,3,2,0.4800705,2,0.4,Correct,730,1,-0.733822311,2.083027389,0
731,1033,Baseline,7,11,Low Prob,3,2,3,0.5181812,3,0.55,Correct,731,1,-0.657430291,1.929826864,0
732,1033,Baseline,7,12,High Prob,2,3,1,0.3502443,1,0.45,Correct,732,1,-1.049124368,2.855149962,0
733,1033,Baseline,7,13,High Prob,3,1,2,0.5069589,2,0.5,Correct,733,1,-0.679325344,1.972546492,0
734,1033,Baseline,7,14,High Prob,1,2,1,0.5256513,1,0.6,Correct,734,1,-0.643117214,1.902401839,0
735,1033,Baseline,7,15,High Prob,2,1,4,0.5117302,4,0.6,Correct,735,1,-0.669957746,1.954154748,0
736,1033,Baseline,7,16,Low Prob,1,4,2,0.5284629,2,0.25,Correct,736,1,-0.637782675,1.892280423,0
737,1033,Baseline,7,17,High Prob,4,2,3,0.4825682,3,0.2,Correct,737,1,-0.728633021,2.072245954,0
738,1033,Baseline,7,18,High Prob,2,3,1,0.345879,1,0.5,Correct,738,1,-1.061666276,2.891184489,0
739,1033,Baseline,7,19,Low Prob,3,1,4,0.4732976,4,0.45,Correct,739,1,-0.748030913,2.112835561,0
740,1033,Baseline,7,20,Low Prob,1,4,2,0.4753401,2,0.25,Correct,740,1,-0.743724731,2.103756868,0
741,1033,Baseline,7,21,High Prob,4,2,3,0.4253676,3,0.35,Correct,741,1,-0.854801543,2.35090778,0
742,1033,Baseline,7,22,High Prob,2,3,1,0.4194486,1,0.5,Correct,742,1,-0.868814287,2.38408234,0
743,1033,Baseline,7,23,High Prob,3,1,2,0.4175226,2,0.4,Correct,743,1,-0.873416604,2.395079931,0
744,1033,Baseline,7,24,Low Prob,1,2,4,0.6315769,4,0.2,Correct,744,1,-0.459535571,1.583338466,0
745,1033,Baseline,7,25,High Prob,2,4,1,0.5129568,1,0.3,Correct,745,1,-0.667563648,1.949481906,0
746,1033,Baseline,7,26,High Prob,4,1,3,0.5076715,3,0.4,Correct,746,1,-0.677920694,1.969777701,0
747,1033,Baseline,7,27,High Prob,1,3,4,0.5424019,4,0.2,Correct,747,1,-0.611748039,1.843651359,0
748,1033,Baseline,7,28,High Prob,3,4,2,0.3117796,2,0.4,Correct,748,1,-1.165458751,3.207393941,0
749,1033,Baseline,7,29,High Prob,4,2,3,0.5925127,3,0.25,Correct,749,1,-0.523382972,1.687727537,0
750,1033,Baseline,7,30,High Prob,2,3,1,0.3958849,1,0.3,Correct,750,1,-0.926631767,2.52598672,0
751,1033,Baseline,7,31,High Prob,3,1,2,0.6512751,2,0.4,Correct,751,1,-0.428823145,1.535449459,0
752,1033,Baseline,7,32,High Prob,1,2,1,0.586013,1,0.55,Correct,752,1,-0.534413305,1.706446785,0
753,1033,Baseline,7,33,High Prob,2,1,4,0.6254002,4,0.4,Correct,753,1,-0.469363514,1.598976144,0
754,1033,Baseline,7,34,High Prob,1,4,3,0.3854873,3,0.55,Correct,754,1,-0.953247031,2.594119184,0
755,1033,Baseline,7,35,High Prob,4,3,2,0.4028637,2,0.35,Correct,755,1,-0.909156988,2.482229101,0
756,1033,Baseline,7,36,High Prob,3,2,4,0.5175242,4,0.3,Correct,756,1,-0.658698992,1.93227679,0
757,1033,Baseline,7,37,High Prob,2,4,1,0.4556082,1,0.6,Correct,757,1,-0.786122049,2.19486831,0
758,1033,Baseline,7,38,High Prob,4,1,3,0.4343278,3,0.45,Correct,758,1,-0.83395573,2.302408457,0
759,1033,Baseline,7,39,High Prob,1,3,4,0.6557379,4,0.4,Correct,759,1,-0.421994113,1.524999546,0
760,1033,Baseline,7,40,High Prob,3,4,2,0.3164981,2,0.6,Correct,760,1,-1.150438041,3.159576629,0
761,1033,Baseline,7,41,Low Prob,4,2,1,0.5345309,1,0.2,Correct,761,1,-0.626365739,1.870799237,0
762,1033,Baseline,7,42,High Prob,2,1,4,0.6599203,4,0.3,Correct,762,1,-0.415636209,1.515334503,0
763,1033,Baseline,7,43,High Prob,1,4,3,0.3166453,3,0.3,Correct,763,1,-1.149973059,3.158107826,0
764,1033,Baseline,7,44,High Prob,4,3,2,0.4546473,3,0.2,Wrong,764,0,-0.788233325,2.199507178,1
765,1033,Baseline,7,45,High Prob,3,2,4,0.4514014,4,0.4,Correct,765,1,-0.795398313,2.215323213,0
766,1033,Baseline,7,46,High Prob,2,4,1,0.3380801,1,0.35,Correct,766,1,-1.084472429,2.957878917,0
767,1033,Baseline,7,47,High Prob,4,1,3,0.4254662,3,0.25,Correct,767,1,-0.85456977,2.350362967,0
768,1033,Baseline,7,48,High Prob,1,3,4,0.401569,4,0.55,Correct,768,1,-0.912375905,2.490232065,0
769,1033,Baseline,7,49,High Prob,3,4,2,0.3162819,2,0.5,Correct,769,1,-1.151121374,3.161736413,0
770,1033,Baseline,7,50,High Prob,4,2,3,0.4623332,3,0.4,Correct,770,1,-0.771469436,2.162942224,0
771,1033,Baseline,7,51,High Prob,2,3,1,0.4330428,1,0.25,Correct,771,1,-0.836918711,2.309240565,0
772,1033,Baseline,7,52,Low Prob,3,1,4,0.5524411,4,0.55,Correct,772,1,-0.593408458,1.810147724,0
773,1033,Baseline,7,53,Low Prob,1,4,2,0.475174,2,0.55,Correct,773,1,-0.744074226,2.104492249,0
774,1033,Baseline,7,54,High Prob,4,2,3,0.3812243,3,0.25,Correct,774,1,-0.964367363,2.623127644,0
775,1033,Baseline,7,55,High Prob,2,3,1,0.4853242,1,0.2,Correct,775,1,-0.722938158,2.060478336,0
776,1033,Baseline,7,56,High Prob,3,1,2,0.5846334,2,0.2,Correct,776,1,-0.536770295,1.710473606,0
777,1033,Baseline,7,57,High Prob,1,2,1,0.3620534,1,0.55,Correct,777,1,-1.015963564,2.762023503,0
778,1033,Baseline,7,58,High Prob,2,1,4,0.3467701,4,0.4,Correct,778,1,-1.059093255,2.883754972,0
779,1033,Baseline,7,59,High Prob,1,4,3,0.2961744,3,0.5,Correct,779,1,-1.216806809,3.376389046,0
780,1033,Baseline,7,60,High Prob,4,3,2,0.3895975,2,0.55,Correct,780,1,-0.942641124,2.566751583,0
781,1033,Baseline,7,61,High Prob,3,2,4,0.1429067,1,0.55,Wrong,781,0,-1.945563309,6.997572542,1
782,1033,Baseline,7,62,High Prob,2,4,1,0.5323004,1,0.5,Correct,782,1,-0.630547287,1.878638453,0
783,1033,Baseline,7,63,High Prob,4,1,3,0.5896953,3,0.4,Correct,783,1,-0.528149316,1.69579103,0
784,1033,Baseline,7,64,High Prob,1,3,4,0.4410827,4,0.3,Correct,784,1,-0.818522893,2.267148542,0
785,1033,Baseline,7,65,High Prob,3,4,2,0.274485,2,0.5,Correct,785,1,-1.292858664,3.643186331,0
786,1033,Baseline,7,66,High Prob,4,2,3,0.5245124,3,0.25,Correct,786,1,-0.64528621,1.90653262,0
787,1033,Baseline,7,67,High Prob,2,3,1,0.2545845,1,0.6,Correct,787,1,-1.368122475,3.927968906,0
788,1033,Baseline,7,68,High Prob,3,1,2,0.2993168,2,0.6,Correct,788,1,-1.206252735,3.340941771,0
789,1033,Baseline,7,69,High Prob,1,2,1,0.4460616,1,0.4,Correct,789,1,-0.80729822,2.241842831,0
790,1033,Baseline,7,70,Low Prob,2,1,3,0.443392,3,0.4,Correct,790,1,-0.813301024,2.255340647,0
791,1033,Baseline,7,71,Low Prob,1,3,2,0.5527832,2,0.4,Correct,791,1,-0.592789398,1.809027481,0
792,1033,Baseline,7,72,High Prob,3,2,4,0.4555035,4,0.25,Correct,792,1,-0.786351878,2.195372813,0
793,1033,Baseline,7,73,High Prob,2,4,1,0.3062256,2,0.45,Wrong,793,0,-1.183433194,3.265566301,1
794,1033,Baseline,7,74,High Prob,4,1,3,0.598933,3,0.35,Correct,794,1,-0.51260554,1.669635836,0
795,1033,Baseline,7,75,High Prob,1,3,4,0.3676908,4,0.35,Correct,795,1,-1.000512911,2.719676424,0
796,1033,Baseline,7,76,Low Prob,3,4,1,0.3357213,1,0.4,Correct,796,1,-1.091473928,2.978661169,0
797,1033,Baseline,7,77,High Prob,4,1,3,0.3311085,3,0.55,Correct,797,1,-1.105309163,3.020158045,0
798,1033,Baseline,7,78,High Prob,1,3,4,0.4351517,4,0.25,Correct,798,1,-0.832060573,2.298049163,0
799,1033,Baseline,7,79,High Prob,3,4,2,0.4545449,2,0.25,Correct,799,1,-0.78845858,2.200002684,0
800,1033,Baseline,7,80,High Prob,4,2,3,0.4891931,3,0.25,Correct,800,1,-0.71499798,2.044182553,0
801,1033,Baseline,7,81,High Prob,2,3,1,0.2926131,1,0.4,Correct,801,1,-1.22890402,3.417481992,0
802,1033,Baseline,7,82,High Prob,3,1,2,0.5439493,2,0.2,Correct,802,1,-0.608899235,1.838406631,0
803,1033,Baseline,7,83,High Prob,1,2,1,0.4713843,1,0.45,Correct,803,1,-0.752081594,2.121411341,0
804,1033,Baseline,7,84,High Prob,2,1,4,0.6014504,4,0.25,Correct,804,1,-0.508411207,1.662647493,0
805,1033,Baseline,7,85,High Prob,1,4,3,0.2981704,3,0.55,Correct,805,1,-1.210090144,3.353786962,0
806,1033,Baseline,7,86,High Prob,4,3,2,0.4348766,2,0.25,Correct,806,1,-0.832692966,2.299502893,0
807,1033,Baseline,7,87,High Prob,3,2,4,0.4422794,4,0.55,Correct,807,1,-0.81581347,2.261014191,0
808,1033,Baseline,7,88,High Prob,2,4,1,0.5436407,1,0.2,Correct,808,1,-0.609466728,1.83945021,0
809,1033,Baseline,7,89,High Prob,4,1,3,0.5290845,3,0.2,Correct,809,1,-0.636607125,1.890057259,0
810,1033,Baseline,7,90,Low Prob,1,3,2,0.4270899,2,0.4,Correct,810,1,-0.850760749,2.341427414,0
811,1033,Baseline,7,91,High Prob,3,2,4,0.5291318,4,0.2,Correct,811,1,-0.636517729,1.889888304,0
812,1033,Baseline,7,92,High Prob,2,4,1,0.2951834,1,0.5,Correct,812,1,-1.220158421,3.387724377,0
813,1033,Baseline,7,93,High Prob,4,1,3,0.2945853,3,0.5,Correct,813,1,-1.222186674,3.394602514,0
814,1033,Baseline,7,94,High Prob,1,3,4,0.3759612,4,0.45,Correct,814,1,-0.978269332,2.659848942,0
815,1033,Baseline,7,95,High Prob,3,4,2,0.2880333,2,0.6,Correct,815,1,-1.244679181,3.471820793,0
816,1033,Baseline,7,96,High Prob,4,2,3,0.4174111,3,0.45,Correct,816,1,-0.873683691,2.395719711,0
817,1033,Baseline,7,97,High Prob,2,3,1,0.2794678,1,0.6,Correct,817,1,-1.274868199,3.578229764,0
818,1033,Baseline,7,98,High Prob,3,1,2,0.4474952,2,0.3,Correct,818,1,-0.804089468,2.234660841,0
819,1033,Baseline,7,99,High Prob,1,2,1,0.4328789,1,0.3,Correct,819,1,-0.837297267,2.310114907,0
820,1033,Baseline,7,100,High Prob,2,1,4,0.3802582,3,0.45,Wrong,820,0,-0.966904783,2.629792073,1
821,1033,Baseline,7,101,High Prob,1,4,3,0.3783208,3,0.45,Correct,821,1,-0.972012766,2.643259371,0
822,1033,Baseline,7,102,Low Prob,4,3,1,0.4343557,1,0.2,Correct,822,1,-0.833891495,2.302260567,0
823,1033,Baseline,7,103,High Prob,3,1,2,0.3437604,1,0.6,Wrong,823,0,-1.067810376,2.909002899,1
824,1033,Baseline,7,104,High Prob,1,2,1,0.4511609,1,0.55,Correct,824,1,-0.79593124,2.216504134,0
825,1033,Baseline,7,105,High Prob,2,1,4,0.5878839,4,0.5,Correct,825,1,-0.5312258,1.701016136,0
826,1033,Baseline,7,106,High Prob,1,4,3,0.3472918,3,0.6,Correct,826,1,-1.05758993,2.87942301,0
827,1033,Baseline,7,107,High Prob,4,3,2,0.3326634,2,0.4,Correct,827,1,-1.100624111,3.006041542,0
828,1033,Baseline,7,108,High Prob,3,2,4,0.4360437,4,0.25,Correct,828,1,-0.830012811,2.293348121,0
829,1033,Baseline,7,109,High Prob,2,4,1,0.369426,1,0.4,Correct,829,1,-0.995804829,2.706902059,0
830,1033,Baseline,7,110,High Prob,4,1,3,0.4014644,3,0.4,Correct,830,1,-0.912636417,2.490880885,0
831,1033,Baseline,7,111,High Prob,1,3,4,0.4321879,4,0.4,Correct,831,1,-0.838894832,2.313808415,0
832,1033,Baseline,7,112,High Prob,3,4,2,0.4195764,2,0.25,Correct,832,1,-0.868509648,2.383356166,0
833,1033,Baseline,7,113,Low Prob,4,2,1,0.303639,1,0.45,Correct,833,1,-1.191915783,3.293384578,0
834,1033,Baseline,7,114,High Prob,2,1,4,0.3463254,4,0.6,Correct,834,1,-1.060376483,2.887457865,0
835,1033,Baseline,7,115,High Prob,1,4,3,0.3517338,3,0.3,Correct,835,1,-1.044880639,2.843059154,0
836,1033,Baseline,7,116,High Prob,4,3,2,0.3624625,2,0.55,Correct,836,1,-1.014834258,2.758906094,0
837,1033,Baseline,7,117,High Prob,3,2,4,0.4711776,4,0.5,Correct,837,1,-0.752520186,2.122341979,0
838,1033,Baseline,7,118,High Prob,2,4,1,0.4172087,1,0.45,Correct,838,1,-0.874168703,2.396881944,0
839,1033,Baseline,7,119,High Prob,4,1,3,0.4392472,3,0.2,Correct,839,1,-0.822692926,2.276622367,0
840,1033,Baseline,7,120,High Prob,1,3,4,0.5686576,4,0.3,Correct,840,1,-0.564476783,1.758527451,0
841,1033,Baseline,8,1,High Prob,2,3,1,0.3055649,1,0.55,Correct,841,1,-1.185593084,3.27262719,0
842,1033,Baseline,8,2,High Prob,3,1,2,0.5362495,2,0.3,Correct,842,1,-0.623155741,1.864803604,0
843,1033,Baseline,8,3,Low Prob,1,2,4,0.3716407,4,0.35,Correct,843,1,-0.989827752,2.690770952,0
844,1033,Baseline,8,4,High Prob,2,4,1,0.4196921,1,0.4,Correct,844,1,-0.868233932,2.382699126,0
845,1033,Baseline,8,5,Low Prob,4,1,2,0.4297452,2,0.5,Correct,845,1,-0.844562804,2.326960255,0
846,1033,Baseline,8,6,Low Prob,1,2,4,0.3817895,4,0.35,Correct,846,1,-0.962885869,2.619244374,0
847,1033,Baseline,8,7,High Prob,2,4,1,0.4031723,1,0.25,Correct,847,1,-0.908391265,2.48032913,0
848,1033,Baseline,8,8,High Prob,4,1,3,0.7358888,3,0.45,Correct,848,1,-0.306676259,1.358900964,0
849,1033,Baseline,8,9,High Prob,1,3,4,0.2933017,4,0.3,Correct,849,1,-1.226553507,3.409458588,0
850,1033,Baseline,8,10,High Prob,3,4,2,0.3946362,2,0.35,Correct,850,1,-0.929790951,2.533979397,0
851,1033,Baseline,8,11,High Prob,4,2,3,0.542074,3,0.3,Correct,851,1,-0.612352755,1.844766582,0
852,1033,Baseline,8,12,High Prob,2,3,1,0.2714481,1,0.6,Correct,852,1,-1.303984318,3.683945476,0
853,1033,Baseline,8,13,Low Prob,3,1,4,0.4334765,4,0.45,Correct,853,1,-0.835917694,2.306930133,0
854,1033,Baseline,8,14,High Prob,1,4,3,0.310905,3,0.2,Correct,854,1,-1.16826788,3.21641659,0
855,1033,Baseline,8,15,Low Prob,4,3,1,0.3856262,1,0.2,Correct,855,1,-0.952886772,2.593184799,0
856,1033,Baseline,8,16,High Prob,3,1,2,0.4169574,2,0.4,Correct,856,1,-0.874771221,2.398326544,0
857,1033,Baseline,8,17,Low Prob,1,2,4,0.3729974,4,0.25,Correct,857,1,-0.98618383,2.680983835,0
858,1033,Baseline,8,18,High Prob,2,4,1,0.4650501,1,0.5,Correct,858,1,-0.765610137,2.150305956,0
859,1033,Baseline,8,19,High Prob,4,1,3,0.3351708,3,0.35,Correct,859,1,-1.093115026,2.98355346,0
860,1033,Baseline,8,20,High Prob,1,3,4,0.3604789,4,0.2,Correct,860,1,-1.020321854,2.774087471,0
861,1033,Baseline,8,21,High Prob,3,4,2,0.401186,2,0.6,Correct,861,1,-0.913330119,2.492609413,0
862,1033,Baseline,8,22,High Prob,4,2,3,0.4099313,4,0.55,Wrong,862,0,-0.891765694,2.439433144,1
863,1033,Baseline,8,23,High Prob,2,3,1,0.322677,1,0.55,Correct,863,1,-1.131103456,3.099074307,0
864,1033,Baseline,8,24,High Prob,3,1,2,0.6207193,2,0.6,Correct,864,1,-0.476876312,1.611034166,0
865,1033,Baseline,8,25,High Prob,1,2,1,0.5407978,1,0.55,Correct,865,1,-0.614709822,1.849119948,0
866,1033,Baseline,8,26,High Prob,2,1,4,0.478199,4,0.6,Correct,866,1,-0.737728315,2.091179614,0
867,1033,Baseline,8,27,High Prob,1,4,3,0.3702198,3,0.2,Correct,867,1,-0.993658396,2.701098104,0
868,1033,Baseline,8,28,High Prob,4,3,2,0.4263692,2,0.6,Correct,868,1,-0.852449641,2.345385173,0
869,1033,Baseline,8,29,High Prob,3,2,4,0.5763555,4,0.2,Correct,869,1,-0.551030621,1.735040266,0
870,1033,Baseline,8,30,High Prob,2,4,1,0.3483992,1,0.3,Correct,870,1,-1.05440633,2.870270655,0
871,1033,Baseline,8,31,High Prob,4,1,3,0.4691548,3,0.6,Correct,871,1,-0.756822501,2.131492633,0
872,1033,Baseline,8,32,High Prob,1,3,4,0.5372127,4,0.6,Correct,872,1,-0.621361174,1.861460088,0
873,1033,Baseline,8,33,High Prob,3,4,2,0.3345999,2,0.5,Correct,873,1,-1.094819789,2.988644049,0
874,1033,Baseline,8,34,Low Prob,4,2,1,0.3959909,1,0.5,Correct,874,1,-0.926364048,2.525310556,0
875,1033,Baseline,8,35,High Prob,2,1,4,0.4613357,4,0.35,Correct,875,1,-0.773629301,2.167618938,0
876,1033,Baseline,8,36,High Prob,1,4,3,0.3180693,3,0.3,Correct,876,1,-1.145485995,3.14396894,0
877,1033,Baseline,8,37,High Prob,4,3,2,0.4181223,2,0.35,Correct,877,1,-0.871981306,2.391644741,0
878,1033,Baseline,8,38,High Prob,3,2,4,0.4501648,4,0.35,Correct,878,1,-0.798141541,2.221408693,0
879,1033,Baseline,8,39,High Prob,2,4,1,0.3668447,1,0.4,Correct,879,1,-1.002816681,2.725949155,0
880,1033,Baseline,8,40,High Prob,4,1,3,0.3309151,3,0.5,Correct,880,1,-1.105893432,3.021923146,0
881,1033,Baseline,8,41,High Prob,1,3,4,0.4529944,4,0.6,Correct,881,1,-0.791875516,2.207532808,0
882,1033,Baseline,8,42,High Prob,3,4,2,0.3477402,2,0.55,Correct,882,1,-1.05629963,2.875710085,0
883,1033,Baseline,8,43,High Prob,4,2,3,0.6551658,3,0.35,Correct,883,1,-0.422866946,1.526331197,0
884,1033,Baseline,8,44,High Prob,2,3,1,0.6499217,1,0.25,Correct,884,1,-0.430903385,1.538646886,0
885,1033,Baseline,8,45,High Prob,3,1,2,0.5485668,2,0.25,Correct,885,1,-0.60044622,1.822932048,0
886,1033,Baseline,8,46,High Prob,1,2,1,0.4952876,1,0.35,Correct,886,1,-0.702616675,2.019028944,0
887,1033,Baseline,8,47,High Prob,2,1,4,0.3727106,4,0.55,Correct,887,1,-0.986953032,2.683046847,0
888,1033,Baseline,8,48,High Prob,1,4,3,0.3547397,3,0.45,Correct,888,1,-1.036370998,2.818968387,0
889,1033,Baseline,8,49,Low Prob,4,3,1,0.571505,1,0.6,Correct,889,1,-0.559482047,1.749765969,0
890,1033,Baseline,8,50,High Prob,3,1,2,0.4855326,2,0.35,Correct,890,1,-0.722508846,2.059593939,0
891,1033,Baseline,8,51,High Prob,1,2,1,0.5789166,1,0.35,Correct,891,1,-0.546596853,1.727364529,0
892,1033,Baseline,8,52,High Prob,2,1,4,0.5489916,4,0.55,Correct,892,1,-0.599672138,1.821521495,0
893,1033,Baseline,8,53,High Prob,1,4,3,0.3497495,3,0.4,Correct,893,1,-1.050538095,2.85918922,0
894,1033,Baseline,8,54,High Prob,4,3,2,0.4344191,2,0.3,Correct,894,1,-0.833745543,2.30192457,0
895,1033,Baseline,8,55,High Prob,3,2,4,0.4578311,4,0.55,Correct,895,1,-0.78125494,2.184211601,0
896,1033,Baseline,8,56,Low Prob,2,4,3,0.5945436,3,0.5,Correct,896,1,-0.519961227,1.681962433,0
897,1033,Baseline,8,57,High Prob,4,3,2,0.7019289,2,0.3,Correct,897,1,-0.353923162,1.424645716,0
898,1033,Baseline,8,58,High Prob,3,2,4,0.430695,4,0.45,Correct,898,1,-0.842355096,2.321828672,0
899,1033,Baseline,8,59,High Prob,2,4,1,0.5307146,1,0.25,Correct,899,1,-0.633530879,1.884251912,0
900,1033,Baseline,8,60,High Prob,4,1,3,0.564822,3,0.2,Correct,900,1,-0.571244642,1.770469281,0
901,1033,Baseline,8,61,High Prob,1,3,4,0.3108547,4,0.55,Correct,901,1,-1.168429679,3.216937045,0
902,1033,Baseline,8,62,High Prob,3,4,2,0.3535779,2,0.6,Correct,902,1,-1.03965145,2.828231063,0
903,1033,Baseline,8,63,High Prob,4,2,3,0.3982935,3,0.5,Correct,903,1,-0.920566108,2.510711322,0
904,1033,Baseline,8,64,High Prob,2,3,1,0.421022,1,0.6,Correct,904,1,-0.86507019,2.375172794,0
905,1033,Baseline,8,65,High Prob,3,1,2,0.447043,2,0.5,Correct,905,1,-0.805100492,2.236921281,0
906,1033,Baseline,8,66,High Prob,1,2,1,0.4384783,1,0.55,Correct,906,1,-0.824444955,2.280614571,0
907,1033,Baseline,8,67,High Prob,2,1,4,0.3658843,4,0.55,Correct,907,1,-1.005438116,2.733104427,0
908,1033,Baseline,8,68,High Prob,1,4,3,0.3438965,3,0.55,Correct,908,1,-1.067414539,2.907851636,0
909,1033,Baseline,8,69,High Prob,4,3,2,0.5752938,2,0.25,Correct,909,1,-0.552874412,1.738242269,0
910,1033,Baseline,8,70,High Prob,3,2,4,0.7513077,4,0.2,Correct,910,1,-0.285939991,1.33101258,0
911,1033,Baseline,8,71,High Prob,2,4,1,0.3601103,1,0.6,Correct,911,1,-1.021344906,2.776926958,0
912,1033,Baseline,8,72,High Prob,4,1,3,0.5768124,3,0.2,Correct,912,1,-0.550238195,1.73366592,0
913,1033,Baseline,8,73,High Prob,1,3,4,0.4448627,4,0.3,Correct,913,1,-0.809989584,2.247884572,0
914,1033,Baseline,8,74,High Prob,3,4,2,0.3162534,2,0.35,Correct,914,1,-1.151211488,3.162021341,0
915,1033,Baseline,8,75,High Prob,4,2,3,0.4502938,3,0.3,Correct,915,1,-0.79785502,2.220772305,0
916,1033,Baseline,8,76,High Prob,2,3,1,0.4210438,1,0.25,Correct,916,1,-0.865018413,2.375049817,0
917,1033,Baseline,8,77,High Prob,3,1,2,0.5030909,1,0.3,Wrong,917,0,-0.68698441,1.98771236,1
918,1033,Baseline,8,78,High Prob,1,2,1,0.5217622,1,0.2,Correct,918,1,-0.65054335,1.916581922,0
919,1033,Baseline,8,79,High Prob,2,1,4,0.4698162,4,0.35,Correct,919,1,-0.755413725,2.128491951,0
920,1033,Baseline,8,80,High Prob,1,4,3,0.3118698,3,0.25,Correct,920,1,-1.165169486,3.206466288,0
921,1033,Baseline,8,81,High Prob,4,3,2,0.4445859,2,0.35,Correct,921,1,-0.810611992,2.249284109,0
922,1033,Baseline,8,82,High Prob,3,2,4,0.497988,4,0.2,Correct,922,1,-0.697179299,2.008080516,0
923,1033,Baseline,8,83,High Prob,2,4,1,0.5673372,1,0.55,Correct,923,1,-0.566801443,1.762620184,0
924,1033,Baseline,8,84,High Prob,4,1,3,0.329409,3,0.55,Correct,924,1,-1.110455139,3.035739764,0
925,1033,Baseline,8,85,Low Prob,1,3,2,0.46146,2,0.35,Correct,925,1,-0.773359903,2.167035063,0
926,1033,Baseline,8,86,High Prob,3,2,4,0.4301791,4,0.3,Correct,926,1,-0.843553645,2.324613167,0
927,1033,Baseline,8,87,High Prob,2,4,1,0.3822168,1,0.35,Correct,927,1,-0.961767292,2.616316185,0
928,1033,Baseline,8,88,High Prob,4,1,3,0.4155891,3,0.35,Correct,928,1,-0.878058247,2.406222877,0
929,1033,Baseline,8,89,High Prob,1,3,4,0.6576594,4,0.3,Correct,929,1,-0.419068111,1.520543917,0
930,1033,Baseline,8,90,High Prob,3,4,2,0.6064003,2,0.6,Correct,930,1,-0.50021495,1.649075701,0
931,1033,Baseline,8,91,Low Prob,4,2,1,0.3211396,1,0.5,Correct,931,1,-1.135879359,3.113910586,0
932,1033,Baseline,8,92,High Prob,2,1,4,0.6151825,3,0.3,Wrong,932,0,-0.485836307,1.625533886,1
933,1033,Baseline,8,93,High Prob,1,4,3,0.6932298,3,0.2,Correct,933,1,-0.366393733,1.4425231,0
934,1033,Baseline,8,94,High Prob,4,3,2,0.6726535,2,0.6,Correct,934,1,-0.396524941,1.486649516,0
935,1033,Baseline,8,95,High Prob,3,2,4,0.5207161,4,0.3,Correct,935,1,-0.652550299,1.920432266,0
936,1033,Baseline,8,96,High Prob,2,4,1,0.4907609,1,0.2,Correct,936,1,-0.711798235,2.037652144,0
937,1033,Baseline,8,97,High Prob,4,1,3,0.3401473,3,0.45,Correct,937,1,-1.07837652,2.939902801,0
938,1033,Baseline,8,98,High Prob,1,3,4,0.3735453,1,0.4,Wrong,938,0,-0.984715997,2.677051485,1
939,1033,Baseline,8,99,High Prob,3,4,2,0.4996023,2,0.45,Correct,939,1,-0.693942897,2.001592066,0
940,1033,Baseline,8,100,High Prob,4,2,3,0.5023021,3,0.2,Correct,940,1,-0.688553547,1.990833803,0
941,1033,Baseline,8,101,High Prob,2,3,1,0.3490379,1,0.5,Correct,941,1,-1.052574767,2.865018383,0
942,1033,Baseline,8,102,High Prob,3,1,2,0.4836822,2,0.25,Correct,942,1,-0.726327199,2.067473229,0
943,1033,Baseline,8,103,High Prob,1,2,1,0.3931262,1,0.55,Correct,943,1,-0.933624599,2.543712426,0
944,1033,Baseline,8,104,High Prob,2,1,4,0.7505004,4,0.25,Correct,944,1,-0.287015095,1.332444326,0
945,1033,Baseline,8,105,High Prob,1,4,3,0.6032571,3,0.5,Correct,945,1,-0.505411805,1.657668016,0
946,1033,Baseline,8,106,High Prob,4,3,2,0.4879756,2,0.25,Correct,946,1,-0.717489874,2.049282792,0
947,1033,Baseline,8,107,Low Prob,3,2,3,0.4914287,3,0.6,Correct,947,1,-0.710438416,2.034883189,0
948,1033,Baseline,8,108,High Prob,2,3,1,0.3967503,1,0.25,Correct,948,1,-0.924448163,2.520476985,0
949,1033,Baseline,8,109,Low Prob,3,1,4,0.4201302,4,0.2,Correct,949,1,-0.867190616,2.380214514,0
950,1033,Baseline,8,110,High Prob,1,4,3,0.4262298,3,0.6,Correct,950,1,-0.852776642,2.34615224,0
951,1033,Baseline,8,111,High Prob,4,3,2,0.340276,2,0.5,Correct,951,1,-1.077998226,2.938790864,0
952,1033,Baseline,8,112,High Prob,3,2,4,0.357651,4,0.4,Correct,952,1,-1.028197628,2.79602182,0
953,1033,Baseline,8,113,High Prob,2,4,1,0.3303469,1,0.3,Correct,953,1,-1.107611965,3.027120884,0
954,1033,Baseline,8,114,High Prob,4,1,3,0.3324492,3,0.4,Correct,954,1,-1.101268213,3.007978362,0
955,1033,Baseline,8,115,Low Prob,1,3,2,0.4657772,2,0.3,Correct,955,1,-0.764047871,2.146949228,0
956,1033,Baseline,8,116,High Prob,3,2,4,0.3578126,4,0.6,Correct,956,1,-1.027745893,2.794759044,0
957,1033,Baseline,8,117,High Prob,2,4,1,0.3645371,1,0.25,Correct,957,1,-1.009126949,2.743205013,0
958,1033,Baseline,8,118,Low Prob,4,1,2,0.5392612,2,0.45,Correct,958,1,-0.617555224,1.854388931,0
959,1033,Baseline,8,119,High Prob,1,2,1,0.4646582,1,0.5,Correct,959,1,-0.766453197,2.152119558,0
960,1033,Baseline,8,120,High Prob,2,1,4,0.5453635,4,0.3,Correct,960,1,-0.606302734,1.833639398,0
